time,ax,ay,az,atotal
0.07725882530212402,0.04,-0.13,-0.02,0.13
0.0775749683380127,-0.01,-0.06,0.09,0.1
0.07778692245483398,0.05,0.01,0.15,0.15
0.07801699638366699,0.01,0.0,0.15,0.15
0.07822895050048828,-0.02,-0.01,0.1,0.1
0.07842612266540527,0.01,-0.05,0.07,0.08
0.07863211631774902,0.02,0.01,0.07,0.07
0.07883906364440918,-0.03,0.08,0.03,0.09
0.07903695106506348,0.03,0.03,0.01,0.04
0.08582282066345215,-0.01,-0.01,0.07,0.07
0.09531998634338379,-0.03,-0.02,0.09,0.09
0.10538887977600098,0.0,-0.02,0.07,0.07
0.11547994613647461,0.0,-0.02,0.08,0.08
0.12530112266540527,-0.01,-0.02,0.09,0.09
0.13537096977233887,-0.01,-0.07,0.08,0.1
0.14502406120300293,-0.03,-0.14,0.08,0.16
0.15527606010437012,0.0,-0.06,0.1,0.11
0.16512298583984375,-0.01,-0.06,0.14,0.15
0.17495989799499512,-0.01,-0.13,0.14,0.19
0.1857609748840332,0.01,-0.15,0.12,0.19
0.19562196731567383,0.0,-0.04,0.1,0.1
0.2054460048675537,0.01,-0.11,0.1,0.14
0.2153029441833496,0.02,-0.22,0.09,0.23
0.22526812553405762,-0.01,-0.16,0.11,0.19
0.23531413078308105,0.0,-0.13,0.07,0.14
0.24522995948791504,-0.01,-0.27,0.1,0.28
0.2550837993621826,-0.02,-0.3,0.08,0.31
0.2651197910308838,-0.04,-0.18,-0.02,0.18
0.2774040699005127,-0.03,-0.2,-0.13,0.24
0.28728294372558594,-0.05,-0.11,0.0,0.12
0.29743409156799316,0.07,-0.11,0.29,0.31
0.30720090866088867,0.1,-0.23,0.21,0.32
0.315418004989624,0.03,-0.12,0.19,0.22
0.32506799697875977,-0.01,-0.16,-0.02,0.16
0.3345029354095459,-0.11,-0.16,-0.18,0.26
0.34439802169799805,-0.09,-0.14,-0.24,0.29
0.35447192192077637,-0.12,-0.11,-0.44,0.46
0.36442995071411133,0.01,-0.08,0.45,0.45
0.3743250370025635,0.15,-0.31,0.37,0.5
0.3841221332550049,-0.08,0.05,-0.08,0.12
0.39419007301330566,0.04,-0.05,-0.05,0.08
0.4040799140930176,0.02,0.06,0.43,0.43
0.41417384147644043,0.07,-0.04,0.19,0.2
0.42418980598449707,-0.02,0.13,-0.18,0.22
0.4340498447418213,-0.03,0.13,0.02,0.13
0.4439079761505127,-0.01,-0.1,0.23,0.25
0.45381593704223633,-0.03,-0.02,0.08,0.08
0.46668410301208496,0.06,0.15,0.21,0.26
0.47367191314697266,-0.04,0.08,-0.15,0.17
0.4840989112854004,-0.11,0.07,-0.19,0.23
0.4941539764404297,-0.05,0.09,0.09,0.13
0.5039839744567871,0.1,-0.12,0.24,0.28
0.5132439136505127,-0.03,0.1,0.16,0.19
0.5244381427764893,0.11,0.01,0.35,0.36
0.5335118770599365,0.01,-0.01,0.19,0.19
0.5432009696960449,-0.01,0.09,-0.03,0.09
0.5529680252075195,0.02,0.09,0.21,0.22
0.5629470348358154,0.15,-0.11,0.47,0.5
0.5727779865264893,0.0,0.12,0.35,0.37
0.5827958583831787,0.01,0.03,-0.02,0.03
0.5928518772125244,-0.09,0.13,-0.29,0.33
0.6029098033905029,-0.08,0.2,0.05,0.22
0.6125280857086182,0.09,0.18,0.36,0.41
0.6224780082702637,0.05,0.09,0.04,0.11
0.6325438022613525,0.0,0.21,0.08,0.22
0.642340898513794,0.0,0.27,0.16,0.31
0.6522347927093506,-0.01,0.22,0.1,0.24
0.6621558666229248,0.0,0.26,-0.02,0.26
0.672173023223877,-0.03,0.31,0.09,0.32
0.6824009418487549,-0.02,0.29,0.1,0.3
0.6922299861907959,-0.01,0.23,0.07,0.24
0.7020738124847412,-0.02,0.17,0.03,0.17
0.7120621204376221,-0.03,0.14,0.02,0.14
0.7220289707183838,-0.04,0.11,0.05,0.12
0.731827974319458,-0.05,0.04,0.1,0.11
0.7418689727783203,-0.01,0.06,0.09,0.1
0.7516858577728271,0.02,0.0,0.09,0.09
0.7615931034088135,0.03,0.04,0.11,0.12
0.7715129852294922,0.02,0.03,0.13,0.13
0.7815167903900146,0.01,-0.02,0.12,0.12
0.791309118270874,-0.01,-0.01,0.1,0.1
0.8014380931854248,-0.02,-0.01,0.09,0.09
0.8114378452301025,-0.01,-0.01,0.05,0.05
0.8213369846343994,0.0,0.01,0.04,0.04
0.8311750888824463,0.02,0.02,0.04,0.04
0.8410789966583252,-0.01,-0.01,0.04,0.04
0.8509650230407715,-0.03,0.0,0.06,0.06
0.860893964767456,-0.02,0.0,0.06,0.06
0.8708240985870361,-0.01,-0.01,0.05,0.05
0.8807799816131592,0.01,0.01,0.06,0.06
0.8907458782196045,0.0,0.01,0.08,0.08
0.9006898403167725,0.0,0.0,0.09,0.09
0.9105570316314697,0.0,0.01,0.09,0.09
0.9204709529876709,-0.01,0.01,0.11,0.11
0.9304978847503662,-0.02,-0.03,0.12,0.12
0.9427788257598877,-0.02,0.0,0.1,0.1
0.9534609317779541,-0.01,0.0,0.08,0.08
0.9630978107452393,-0.01,0.0,0.08,0.08
0.9729268550872803,0.01,0.02,0.07,0.07
0.9829990863800049,0.0,0.01,0.08,0.08
0.9928829669952393,0.01,0.01,0.08,0.08
1.0024211406707764,0.01,0.0,0.09,0.09
1.012070894241333,-0.02,0.02,-0.13,0.13
1.0211608409881592,-0.04,-0.04,0.31,0.31
1.032296895980835,-0.06,0.04,-0.03,0.07
1.0430710315704346,-0.03,-0.02,-0.08,0.08
1.052811861038208,0.03,0.03,0.33,0.33
1.0610558986663818,-0.02,-0.05,0.21,0.21
1.0702641010284424,-0.09,0.06,-0.01,0.1
1.0822880268096924,0.07,0.04,0.06,0.1
1.1072990894317627,0.05,0.0,0.04,0.06
1.1243641376495361,0.02,0.02,0.14,0.14
1.1257951259613037,-0.03,0.04,0.09,0.1
1.1275241374969482,-0.04,0.01,0.06,0.07
1.1294100284576416,0.0,-0.04,-0.01,0.04
1.1390469074249268,0.04,0.04,0.13,0.14
1.1487219333648682,0.02,0.02,0.06,0.06
1.1586740016937256,-0.02,-0.01,0.06,0.06
1.168553113937378,0.0,0.0,0.03,0.03
1.1785471439361572,0.0,0.04,0.03,0.05
1.1906278133392334,-0.02,-0.02,0.08,0.08
1.1985249519348145,-0.01,-0.02,0.08,0.08
1.2084500789642334,-0.01,0.04,0.04,0.05
1.2203848361968994,0.03,0.04,0.08,0.09
1.2295379638671875,0.02,0.04,0.1,0.1
1.2397739887237549,-0.02,0.03,0.1,0.1
1.2512359619140625,-0.02,-0.01,0.07,0.07
1.257685899734497,-0.01,-0.04,0.07,0.08
1.2675678730010986,0.0,-0.04,0.1,0.1
1.2795169353485107,0.01,-0.02,0.1,0.1
1.2889649868011475,0.01,-0.03,0.1,0.1
1.3015048503875732,0.0,-0.02,0.09,0.09
1.307192087173462,0.0,-0.02,0.09,0.09
1.3180820941925049,-0.01,0.01,0.08,0.08
1.3300809860229492,-0.02,0.03,0.05,0.06
1.339143991470337,-0.01,0.03,0.08,0.08
1.3490378856658936,-0.02,0.02,0.12,0.12
1.3571498394012451,-0.04,0.0,0.11,0.11
1.3677771091461182,-0.06,-0.01,0.05,0.07
1.379364013671875,-0.05,0.02,0.08,0.09
1.386929988861084,-0.02,0.03,0.1,0.1
1.397244930267334,-0.03,0.04,0.07,0.08
1.407585859298706,-0.05,0.08,0.01,0.09
1.420172929763794,-0.04,0.06,0.04,0.08
1.4286909103393555,-0.02,0.08,0.08,0.11
1.4387009143829346,-0.03,0.12,0.07,0.14
1.4477450847625732,-0.01,0.1,0.06,0.11
1.456859827041626,0.0,0.11,0.1,0.14
1.470073938369751,0.04,0.17,0.06,0.18
1.4763391017913818,0.06,0.18,-0.01,0.19
1.4864590167999268,-0.02,0.14,-0.01,0.14
1.4968020915985107,-0.09,0.22,-0.03,0.23
1.5085480213165283,-0.04,0.14,0.06,0.15
1.518847942352295,-0.06,-0.06,0.09,0.12
1.5264108180999756,0.13,0.28,0.18,0.35
1.5389139652252197,0.05,0.12,0.2,0.23
1.549839973449707,-0.1,-0.05,0.11,0.15
1.5561389923095703,0.06,0.15,0.05,0.16
1.569195032119751,0.02,0.11,0.13,0.17
1.5770738124847412,0.02,0.11,0.08,0.13
1.5881969928741455,0.01,0.12,-0.02,0.12
1.598883867263794,0.04,0.13,0.06,0.14
1.6053240299224854,0.08,0.14,0.14,0.21
1.6157779693603516,0.02,0.15,0.09,0.17
1.6281750202178955,0.03,0.07,0.15,0.16
1.637403964996338,-0.04,0.14,0.01,0.14
1.6481478214263916,-0.1,0.08,-0.2,0.23
1.6551048755645752,-0.03,0.14,0.08,0.16
1.6676371097564697,0.08,0.11,0.34,0.36
1.6750638484954834,0.07,0.06,0.32,0.33
1.6868319511413574,0.07,-0.09,0.32,0.33
1.697416067123413,-0.02,0.0,0.31,0.31
1.7047908306121826,0.02,-0.03,0.2,0.2
1.7178261280059814,-0.03,-0.05,0.28,0.28
1.7248618602752686,0.02,-0.05,0.22,0.22
1.7377498149871826,-0.01,-0.08,0.25,0.26
1.7473349571228027,-0.06,-0.1,0.33,0.35
1.7548367977142334,-0.38,0.17,0.04,0.41
1.764469861984253,-0.36,0.24,-0.27,0.51
1.774918794631958,-0.05,0.45,-0.27,0.52
1.787437915802002,0.0,0.86,-0.2,0.88
1.7982089519500732,-0.06,0.94,-0.13,0.95
1.8040378093719482,-0.55,0.4,0.88,1.11
1.817553997039795,-0.2,0.46,0.48,0.69
1.824049949645996,0.22,0.67,0.21,0.73
1.8364551067352295,0.16,0.59,0.11,0.62
1.8467140197753906,0.22,0.61,0.13,0.66
1.8536999225616455,0.4,0.85,0.08,0.94
1.8670527935028076,0.47,0.84,-0.09,0.96
1.8758749961853027,0.43,0.75,0.0,0.86
1.8860371112823486,0.34,0.72,0.28,0.84
1.8965938091278076,0.05,0.42,0.43,0.6
1.903813123703003,-0.05,0.24,0.45,0.51
1.9138038158416748,-0.01,0.14,0.41,0.43
1.923949956893921,0.08,0.01,0.43,0.43
1.935513973236084,0.08,-0.13,0.57,0.59
1.9444811344146729,-0.08,-0.18,0.58,0.61
1.9534728527069092,-0.35,-0.16,-0.32,0.5
1.963379144668579,-1.16,-0.2,-3.74,3.92
1.9756748676300049,-0.02,1.39,0.87,1.63
1.9828550815582275,-0.37,-0.09,-0.85,0.93
1.9930589199066162,0.07,0.26,0.81,0.85
2.003592014312744,-1.02,-0.46,1.52,1.88
2.0157010555267334,-1.53,-0.9,1.62,2.4
2.02462100982666,0.2,-0.63,-1.62,1.74
2.035227060317993,0.45,0.11,-1.97,2.02
2.044121026992798,-0.27,0.77,1.0,1.29
2.0526669025421143,-0.07,-0.36,-0.8,0.88
2.0631349086761475,0.12,0.47,0.26,0.55
2.0757458209991455,1.2,0.7,-0.41,1.44
2.0846750736236572,1.26,0.74,-0.5,1.54
2.094324827194214,0.46,0.34,-0.19,0.6
2.1020119190216064,0.07,0.38,-0.25,0.46
2.112759828567505,0.06,0.24,-0.26,0.35
2.125221014022827,0.16,0.1,-0.46,0.49
2.1321780681610107,-0.03,0.04,-0.46,0.46
2.142608880996704,-0.22,-0.31,0.03,0.38
2.1550419330596924,-0.32,-0.26,-0.01,0.41
2.1619460582733154,-0.26,0.09,-0.2,0.34
2.174160957336426,-0.19,-0.16,-0.28,0.37
2.18375301361084,-0.3,-0.32,0.09,0.44
2.1938469409942627,-0.33,-0.26,0.43,0.6
2.2014520168304443,-0.24,-0.12,0.08,0.27
2.211825132369995,0.51,-0.13,-0.55,0.76
2.224061965942383,0.27,-0.03,0.21,0.34
2.234571933746338,-0.27,-0.3,0.19,0.44
2.2440168857574463,-0.18,-0.29,0.06,0.34
2.251373052597046,0.2,-0.21,0.19,0.34
2.2613790035247803,0.32,-0.45,0.13,0.56
2.273979902267456,0.11,-0.65,0.07,0.66
2.2847189903259277,0.13,-0.47,0.35,0.6
2.29402494430542,0.06,-0.47,0.24,0.53
2.3010470867156982,0.03,-0.57,0.24,0.61
2.3114278316497803,0.0,-0.54,0.39,0.66
2.3234119415283203,0.06,-0.5,0.15,0.52
2.332498788833618,0.11,-0.26,0.31,0.41
2.3422679901123047,0.01,-0.58,0.59,0.82
2.3503429889678955,-0.09,-0.43,0.46,0.63
2.3609049320220947,-0.06,-0.15,0.74,0.75
2.3733670711517334,-0.04,-0.17,0.89,0.9
2.380549907684326,-0.09,-0.49,0.44,0.66
2.390515089035034,-0.01,-0.89,-0.42,0.98
2.402817964553833,-0.09,-0.45,0.16,0.48
2.4104039669036865,-0.12,-0.22,0.1,0.26
2.4221670627593994,-0.02,-0.19,0.21,0.28
2.4324870109558105,-0.21,-0.42,0.26,0.53
2.443621873855591,-0.21,-0.43,0.52,0.7
2.4497389793395996,-0.11,-0.4,-0.04,0.41
2.459596872329712,-0.02,-0.32,-0.02,0.32
2.4720799922943115,-0.11,-0.22,0.04,0.24
2.479893922805786,-0.18,-0.29,-0.25,0.42
2.4896910190582275,-0.06,0.0,-0.46,0.46
2.500231981277466,0.01,0.18,-0.35,0.39
2.5115389823913574,-0.1,-0.16,0.01,0.18
2.519763946533203,-0.24,-0.21,-0.11,0.33
2.5317699909210205,-0.05,0.02,-0.39,0.39
2.54306697845459,-0.09,-0.08,-2.93,2.93
2.5496129989624023,0.02,0.91,-2.29,2.46
2.561279058456421,0.1,0.98,2.18,2.39
2.5712499618530273,-0.36,0.25,1.09,1.17
2.5790469646453857,-0.06,0.57,1.5,1.6
2.5894649028778076,-0.2,-0.07,1.64,1.65
2.5996148586273193,-0.36,-1.35,1.54,2.07
2.611027956008911,-0.04,-0.77,0.41,0.87
2.621246099472046,0.18,0.58,-0.86,1.05
2.628798007965088,0.18,0.92,-0.09,0.94
2.6385579109191895,0.1,-0.11,0.09,0.17
2.6511728763580322,-0.13,-0.32,0.1,0.35
2.658499002456665,-0.12,-0.36,0.93,1.0
2.6711349487304688,-0.34,-0.43,0.97,1.11
2.6807258129119873,-0.27,-0.38,0.55,0.72
2.690941095352173,0.1,0.06,0.01,0.11
2.6984760761260986,0.06,0.05,0.17,0.18
2.7085177898406982,0.09,-0.06,0.39,0.4
2.721204996109009,-0.04,-0.29,0.4,0.49
2.7302658557891846,-0.07,-0.46,0.44,0.64
2.7421438694000244,0.07,-0.3,0.29,0.42
2.747697114944458,0.11,-0.11,0.33,0.36
2.7574880123138428,0.11,-0.09,0.41,0.43
2.7705419063568115,0.14,0.09,0.42,0.45
2.7798120975494385,-0.94,-1.06,0.21,1.43
2.789132833480835,-0.19,0.18,0.44,0.51
2.797516107559204,0.0,-0.17,0.18,0.24
2.8079378604888916,-0.04,-0.24,-0.09,0.25
2.819960832595825,0.03,-0.05,-0.38,0.38
2.827589988708496,-0.04,0.09,-0.33,0.34
2.837203025817871,-0.03,0.19,-0.34,0.39
2.847459077835083,-0.09,-0.07,-0.18,0.21
2.8591489791870117,-0.02,-0.24,-0.22,0.32
2.8691608905792236,-0.01,-0.17,-0.11,0.2
2.8788440227508545,0.03,-0.39,-1.73,1.77
2.8887288570404053,-0.22,-0.07,2.44,2.45
2.896768808364868,-0.05,-0.65,0.53,0.84
2.9086058139801025,-0.1,-0.61,0.81,1.01
2.9169838428497314,-0.11,-0.64,0.04,0.65
2.9285359382629395,-0.05,-0.23,0.31,0.38
2.939171075820923,-0.02,-0.12,0.0,0.12
2.946708917617798,-0.08,-0.14,0.11,0.19
2.956954002380371,-0.09,0.0,0.09,0.12
2.969689130783081,-0.05,0.11,0.02,0.12
2.9783759117126465,0.0,-0.12,0.13,0.17
2.9880621433258057,-0.07,-0.1,0.23,0.26
2.995988130569458,-0.12,-0.1,0.41,0.43
3.0063841342926025,-0.1,-0.3,0.67,0.74
3.0193121433258057,0.0,0.08,0.07,0.1
3.0264298915863037,-0.04,0.03,0.03,0.05
3.036067008972168,-0.07,0.07,-0.39,0.4
3.0459039211273193,-0.05,0.3,-0.22,0.37
3.0559608936309814,-0.02,0.23,0.17,0.28
3.0699660778045654,-0.06,0.05,0.28,0.29
3.077755928039551,-0.03,0.01,0.17,0.17
3.0882890224456787,-0.06,-0.11,0.05,0.13
3.0957720279693604,-0.05,0.0,0.14,0.14
3.105613946914673,-0.06,-0.08,0.13,0.16
3.117201089859009,-0.03,-0.07,0.03,0.08
3.126788854598999,-0.12,-0.2,0.07,0.24
3.1354658603668213,-0.04,-0.08,-0.07,0.11
3.14501690864563,-0.07,-0.33,0.25,0.41
3.1573309898376465,-0.03,-0.36,0.11,0.37
3.1665828227996826,-0.09,-0.58,0.15,0.6
3.1773929595947266,-0.06,-0.65,0.16,0.67
3.1861350536346436,-0.07,-0.75,0.12,0.76
3.1949198246002197,-0.03,-0.38,0.1,0.39
3.205022096633911,-0.05,0.01,0.11,0.12
3.2163918018341064,-0.08,-0.07,0.11,0.15
3.2283289432525635,-0.08,-0.06,0.1,0.14
3.236711025238037,-0.03,-0.06,0.1,0.12
3.2441089153289795,-0.06,-0.03,0.1,0.12
3.2542269229888916,-0.05,-0.06,0.1,0.12
3.266616106033325,-0.01,-0.05,0.1,0.11
3.2762858867645264,-0.04,-0.04,0.1,0.11
3.2865450382232666,-0.09,-0.04,0.1,0.14
3.2964460849761963,-0.09,-0.05,0.09,0.13
3.3054778575897217,-0.04,-0.05,0.1,0.11
3.3157949447631836,-0.05,-0.04,0.1,0.11
3.3252928256988525,-0.04,-0.05,0.1,0.11
3.3335189819335938,-0.04,-0.06,0.1,0.12
3.3456718921661377,-0.07,-0.05,0.1,0.13
3.3554019927978516,-0.1,-0.06,0.1,0.15
3.3655130863189697,-0.08,-0.05,0.1,0.13
3.3753230571746826,-0.04,-0.05,0.1,0.11
3.384387969970703,-0.04,-0.05,0.11,0.12
3.393265962600708,-0.07,-0.05,0.09,0.12
3.4042999744415283,-0.07,-0.05,0.1,0.13
3.41436505317688,-0.06,-0.05,0.11,0.13
3.4247429370880127,-0.05,-0.06,0.1,0.12
3.4384379386901855,-0.05,-0.05,0.09,0.11
3.4429848194122314,-0.06,-0.06,0.1,0.13
3.454463005065918,-0.05,-0.05,0.1,0.12
3.463787794113159,-0.05,-0.05,0.09,0.11
3.47397780418396,-0.07,-0.05,0.09,0.12
3.4856979846954346,-0.07,-0.06,0.1,0.13
3.494985818862915,-0.06,-0.05,0.08,0.11
3.50239896774292,-0.03,-0.06,0.1,0.12
3.514714002609253,-0.04,-0.05,0.1,0.11
3.526968002319336,-0.06,-0.05,0.09,0.11
3.5375640392303467,-0.06,-0.06,0.1,0.13
3.54195499420166,-0.04,-0.06,0.1,0.12
3.5537121295928955,-0.05,-0.06,0.09,0.11
3.563585042953491,-0.05,-0.05,0.1,0.12
3.5734260082244873,-0.05,-0.04,0.1,0.11
3.587150812149048,-0.05,-0.05,0.1,0.12
3.591636896133423,-0.06,-0.05,0.1,0.12
3.6043169498443604,-0.06,-0.05,0.1,0.12
3.6142139434814453,-0.05,-0.04,0.1,0.11
3.623649835586548,-0.05,-0.05,0.09,0.11
3.6348488330841064,-0.05,-0.06,0.09,0.11
3.643549919128418,-0.05,-0.05,0.1,0.12
3.655000925064087,-0.05,-0.04,0.1,0.11
3.6627681255340576,-0.05,-0.05,0.1,0.12
3.6736040115356445,-0.06,-0.05,0.09,0.11
3.688361883163452,-0.06,-0.06,0.09,0.12
3.6911449432373047,-0.05,-0.05,0.09,0.11
3.7069737911224365,-0.02,-0.05,0.08,0.09
3.7110488414764404,-0.05,-0.06,0.09,0.11
3.723479986190796,-0.06,-0.05,0.09,0.11
3.731048822402954,-0.05,-0.05,0.09,0.11
3.742656946182251,-0.03,-0.05,0.11,0.12
3.753394842147827,-0.05,-0.04,0.1,0.11
3.762578010559082,-0.06,-0.04,0.13,0.14
3.773340940475464,-0.11,-0.05,0.02,0.12
3.785259962081909,-0.12,-0.04,0.09,0.15
3.7906858921051025,0.08,-0.07,0.13,0.16
3.8070318698883057,-0.07,-0.05,0.05,0.09
3.812506914138794,-0.08,-0.06,0.12,0.15
3.823341131210327,-0.07,-0.05,0.09,0.12
3.8312408924102783,-0.02,-0.04,0.1,0.1
3.8403480052948,-0.04,-0.04,0.11,0.12
3.850640058517456,-0.11,-0.04,0.09,0.14
3.862426996231079,-0.07,-0.04,0.09,0.12
3.87247896194458,-0.01,-0.05,0.1,0.11
3.88167405128479,-0.02,-0.07,0.09,0.11
3.8904430866241455,-0.06,-0.05,0.09,0.11
3.900707960128784,-0.07,-0.05,0.08,0.11
3.912184953689575,-0.04,-0.05,0.09,0.11
3.920597791671753,-0.04,-0.05,0.09,0.11
3.931959867477417,-0.07,-0.04,0.08,0.11
3.940150022506714,-0.06,-0.03,0.1,0.12
3.949979066848755,-0.06,-0.04,0.1,0.12
3.9625790119171143,-0.04,-0.05,0.13,0.14
3.9713408946990967,-0.04,-0.05,0.12,0.13
3.98211407661438,-0.09,-0.06,0.12,0.16
3.9897940158843994,-0.07,-0.05,0.14,0.16
4.002898931503296,-0.05,-0.06,0.16,0.17
4.009378910064697,-0.06,-0.05,0.15,0.16
4.022294998168945,-0.05,-0.03,0.14,0.15
4.033114910125732,-0.07,-0.05,0.16,0.18
4.039562940597534,-0.04,-0.09,0.27,0.28
4.04922080039978,-0.08,-0.01,0.03,0.08
4.059829950332642,-0.06,0.04,0.08,0.1
4.072008848190308,-0.06,-0.06,-0.08,0.11
4.080973863601685,-0.01,-0.09,0.02,0.09
4.0889198780059814,0.01,-0.07,0.07,0.09
4.0990049839019775,-0.07,-0.05,0.05,0.09
4.110749959945679,-0.12,-0.04,0.11,0.16
4.118546009063721,-0.05,-0.05,0.08,0.1
4.128832101821899,0.01,-0.07,0.08,0.1
4.138756990432739,-0.08,-0.05,0.08,0.12
4.151091814041138,-0.1,-0.05,0.1,0.15
4.159848928451538,-0.04,-0.06,0.09,0.11
4.1697070598602295,-0.02,-0.05,0.09,0.1
4.179527997970581,-0.07,-0.05,0.08,0.11
4.188103914260864,-0.09,-0.06,0.08,0.13
4.199674844741821,-0.06,-0.06,0.11,0.13
4.209605932235718,-0.03,-0.05,0.11,0.12
4.2196619510650635,-0.05,-0.06,0.09,0.11
4.231145143508911,-0.06,-0.05,0.09,0.11
4.2373950481414795,-0.05,-0.05,0.1,0.12
4.248936891555786,-0.05,-0.05,0.09,0.11
4.258466005325317,-0.06,-0.05,0.09,0.11
4.269659996032715,-0.05,-0.05,0.09,0.11
4.283858060836792,-0.07,-0.04,0.08,0.11
4.287312984466553,-0.05,-0.04,0.09,0.11
4.304155111312866,-0.02,-0.05,0.09,0.1
4.3086559772491455,-0.07,-0.04,0.1,0.12
4.321913957595825,-0.08,-0.05,0.08,0.12
4.334672927856445,-0.05,-0.05,0.09,0.11
4.3366379737854,-0.03,-0.04,0.09,0.1
4.356866121292114,-0.04,-0.04,0.09,0.1
4.359773874282837,-0.06,-0.04,0.09,0.11
4.37152099609375,-0.06,-0.06,0.08,0.11
4.380782842636108,-0.04,-0.06,0.09,0.11
4.386361837387085,-0.05,-0.05,0.1,0.12
4.398100137710571,-0.06,-0.05,0.09,0.11
4.408142805099487,-0.04,-0.05,0.09,0.11
4.417857885360718,-0.04,-0.04,0.09,0.1
4.426661968231201,-0.05,-0.04,0.1,0.11
4.43940281867981,-0.07,-0.04,0.09,0.12
4.4487879276275635,-0.05,-0.06,0.08,0.11
4.45799708366394,-0.05,-0.05,0.08,0.1
4.467247009277344,-0.06,-0.05,0.08,0.11
4.477853059768677,-0.07,-0.05,0.09,0.12
4.485734939575195,-0.04,-0.05,0.08,0.1
4.498356103897095,-0.04,-0.06,0.1,0.12
4.508641958236694,-0.06,-0.04,0.09,0.11
4.515520811080933,-0.07,-0.05,0.09,0.12
4.527696847915649,-0.05,-0.05,0.09,0.11
4.536545991897583,-0.05,-0.05,0.09,0.11
4.547220945358276,-0.05,-0.06,0.1,0.12
4.557776927947998,-0.06,-0.04,0.08,0.1
4.567126035690308,-0.05,-0.05,0.08,0.1
4.578789949417114,-0.05,-0.05,0.1,0.12
4.585437059402466,-0.07,-0.04,0.09,0.12
4.59712290763855,-0.06,-0.04,0.08,0.1
4.606801986694336,-0.04,-0.04,0.09,0.1
4.617172956466675,-0.05,-0.05,0.09,0.11
4.62804388999939,-0.05,-0.04,0.09,0.11
4.634826898574829,-0.06,-0.04,0.09,0.11
4.645398855209351,-0.05,-0.05,0.08,0.1
4.656337022781372,-0.05,-0.05,0.09,0.11
4.666650056838989,-0.04,-0.06,0.09,0.11
4.678358793258667,-0.05,-0.05,0.09,0.11
4.6844940185546875,-0.05,-0.05,0.09,0.11
4.6950438022613525,-0.06,-0.04,0.08,0.1
4.706536054611206,-0.05,-0.05,0.09,0.11
4.71573805809021,-0.05,-0.05,0.08,0.1
4.725600957870483,-0.04,-0.05,0.08,0.1
4.734342813491821,-0.05,-0.05,0.09,0.11
4.745999097824097,-0.05,-0.04,0.08,0.1
4.755510091781616,-0.05,-0.04,0.09,0.11
4.765406847000122,-0.05,-0.04,0.08,0.1
4.776381969451904,-0.06,-0.04,0.09,0.11
4.783828973770142,-0.05,-0.04,0.09,0.11
4.795478105545044,-0.04,-0.05,0.09,0.11
4.803956985473633,-0.05,-0.05,0.09,0.11
4.814599990844727,-0.05,-0.05,0.09,0.11
4.824817895889282,-0.05,-0.05,0.08,0.1
4.833539009094238,-0.05,-0.04,0.08,0.1
4.845340967178345,-0.06,-0.04,0.09,0.11
4.854231119155884,-0.06,-0.04,0.09,0.11
4.865071058273315,-0.06,-0.05,0.08,0.11
4.88074803352356,-0.06,-0.05,0.08,0.11
4.883302927017212,-0.06,-0.05,0.09,0.11
4.895965814590454,-0.05,-0.05,0.08,0.1
4.903148889541626,-0.05,-0.05,0.09,0.11
4.9156999588012695,-0.05,-0.05,0.08,0.1
4.9247519969940186,-0.05,-0.04,0.08,0.1
4.933439016342163,-0.06,-0.05,0.08,0.11
4.945765018463135,-0.05,-0.04,0.08,0.1
4.953204870223999,-0.04,-0.05,0.08,0.1
4.965298891067505,-0.05,-0.05,0.08,0.1
4.9757239818573,-0.05,-0.05,0.09,0.11
4.982803106307983,-0.05,-0.05,0.09,0.11
4.995158910751343,-0.05,-0.05,0.08,0.1
5.003298997879028,-0.05,-0.05,0.08,0.1
5.014742136001587,-0.05,-0.05,0.07,0.09
5.0298240184783936,-0.05,-0.04,0.08,0.1
5.032279014587402,-0.05,-0.05,0.08,0.1
5.042557001113892,-0.05,-0.05,0.08,0.1
5.05516505241394,-0.05,-0.05,0.07,0.09
5.064133882522583,-0.06,-0.05,0.08,0.11
5.072479009628296,-0.05,-0.06,0.09,0.11
5.082515001296997,-0.06,-0.05,0.08,0.11
5.0918028354644775,-0.06,-0.05,0.08,0.11
5.1062071323394775,-0.05,-0.04,0.09,0.11
5.112541913986206,-0.06,-0.04,0.08,0.1
5.122164011001587,-0.06,-0.06,0.08,0.11
5.13050389289856,-0.05,-0.05,0.08,0.1
5.140568971633911,-0.05,-0.05,0.08,0.1
5.1526877880096436,-0.05,-0.05,0.09,0.11
5.162297010421753,-0.05,-0.05,0.08,0.1
5.173845052719116,-0.06,-0.05,0.07,0.1
5.179962873458862,-0.05,-0.05,0.08,0.1
5.190171957015991,-0.05,-0.04,0.08,0.1
5.202729940414429,-0.06,-0.04,0.08,0.1
5.212147951126099,-0.06,-0.05,0.09,0.11
5.224016904830933,-0.05,-0.04,0.09,0.11
5.229718923568726,-0.05,-0.04,0.08,0.1
5.23999810218811,-0.05,-0.05,0.08,0.1
5.25122594833374,-0.05,-0.05,0.08,0.1
5.262479066848755,-0.05,-0.04,0.07,0.09
5.276360988616943,-0.05,-0.04,0.08,0.1
5.279651880264282,-0.05,-0.05,0.09,0.11
5.2897279262542725,-0.06,-0.05,0.08,0.11
5.300997018814087,-0.06,-0.05,0.08,0.11
5.311442136764526,-0.05,-0.05,0.08,0.1
5.325655937194824,-0.05,-0.04,0.08,0.1
5.3288538455963135,-0.05,-0.05,0.08,0.1
5.340649843215942,-0.05,-0.04,0.08,0.1
5.350271940231323,-0.05,-0.04,0.08,0.1
5.360917806625366,-0.05,-0.06,0.08,0.11
5.373152017593384,-0.06,-0.05,0.09,0.11
5.378850936889648,-0.06,-0.05,0.08,0.11
5.391289949417114,-0.05,-0.04,0.07,0.09
5.398546934127808,-0.06,-0.04,0.08,0.1
5.4118688106536865,-0.05,-0.05,0.08,0.1
5.421292066574097,-0.06,-0.05,0.08,0.11
5.42836594581604,-0.05,-0.05,0.08,0.1
5.438246011734009,-0.05,-0.05,0.09,0.11
5.449753046035767,-0.05,-0.05,0.09,0.11
5.460961103439331,-0.05,-0.04,0.07,0.09
5.4731810092926025,-0.05,-0.05,0.07,0.09
5.477937936782837,-0.05,-0.05,0.07,0.09
5.488277912139893,-0.06,-0.04,0.08,0.1
5.500833988189697,-0.06,-0.05,0.08,0.11
5.508208990097046,-0.05,-0.05,0.07,0.09
5.517826795578003,-0.06,-0.05,0.07,0.1
5.527828931808472,-0.05,-0.05,0.08,0.1
5.539852857589722,-0.05,-0.04,0.08,0.1
5.550235986709595,-0.06,-0.04,0.07,0.1
5.559704065322876,-0.05,-0.04,0.07,0.09
5.57279896736145,-0.05,-0.05,0.08,0.1
5.57765793800354,-0.05,-0.04,0.08,0.1
5.589674949645996,-0.05,-0.05,0.08,0.1
5.598412990570068,-0.05,-0.05,0.08,0.1
5.609092950820923,-0.04,-0.05,0.08,0.1
5.62342381477356,-0.05,-0.05,0.08,0.1
5.6269848346710205,-0.06,-0.04,0.08,0.1
5.639357805252075,-0.06,-0.05,0.08,0.11
5.648990869522095,-0.05,-0.04,0.08,0.1
5.658834934234619,-0.06,-0.04,0.08,0.1
5.669562101364136,-0.06,-0.05,0.07,0.1
5.676882028579712,-0.05,-0.04,0.07,0.09
5.687146902084351,-0.05,-0.05,0.08,0.1
5.698122978210449,-0.05,-0.05,0.07,0.09
5.70880389213562,-0.05,-0.06,0.07,0.1
5.720504999160767,-0.05,-0.05,0.08,0.1
5.726506948471069,-0.06,-0.05,0.08,0.11
5.737017869949341,-0.06,-0.04,0.07,0.1
5.748978853225708,-0.05,-0.05,0.09,0.11
5.758241891860962,-0.05,-0.05,0.07,0.09
5.767741918563843,-0.06,-0.04,0.07,0.1
5.776263952255249,-0.05,-0.04,0.08,0.1
5.787856817245483,-0.05,-0.04,0.08,0.1
5.798699140548706,-0.06,-0.04,0.08,0.1
5.808665037155151,-0.05,-0.05,0.07,0.09
5.8191139698028564,-0.05,-0.04,0.07,0.09
5.825793027877808,-0.05,-0.05,0.08,0.1
5.836271047592163,-0.06,-0.05,0.07,0.1
5.847788095474243,-0.06,-0.05,0.08,0.11
5.857424974441528,-0.05,-0.05,0.08,0.1
5.869144916534424,-0.05,-0.06,0.07,0.1
5.8755199909210205,-0.04,-0.05,0.07,0.09
5.885890960693359,-0.05,-0.04,0.07,0.09
5.898081064224243,-0.06,-0.04,0.07,0.1
5.907232046127319,-0.05,-0.04,0.08,0.1
5.921178102493286,-0.06,-0.04,0.08,0.1
5.9251320362091064,-0.05,-0.05,0.08,0.1
5.939023971557617,-0.05,-0.05,0.07,0.09
5.947256803512573,-0.05,-0.05,0.08,0.1
5.956374883651733,-0.05,-0.04,0.07,0.09
5.967005968093872,-0.05,-0.05,0.08,0.1
5.97508978843689,-0.06,-0.04,0.08,0.1
5.9852399826049805,-0.05,-0.04,0.07,0.09
5.997041940689087,-0.06,-0.04,0.08,0.1
6.006236791610718,-0.06,-0.05,0.08,0.11
6.016413927078247,-0.06,-0.04,0.07,0.1
6.024399042129517,-0.05,-0.05,0.07,0.09
6.036757946014404,-0.05,-0.05,0.08,0.1
6.046127080917358,-0.05,-0.04,0.06,0.08
6.056650876998901,-0.05,-0.05,0.08,0.1
6.070749044418335,-0.05,-0.04,0.08,0.1
6.073911905288696,-0.05,-0.04,0.08,0.1
6.084383964538574,-0.06,-0.04,0.07,0.1
6.09552001953125,-0.06,-0.04,0.07,0.1
6.106426954269409,-0.05,-0.04,0.08,0.1
6.118255853652954,-0.05,-0.05,0.07,0.09
6.123670816421509,-0.06,-0.05,0.07,0.1
6.1339170932769775,-0.06,-0.05,0.08,0.11
6.1459801197052,-0.05,-0.05,0.08,0.1
6.15497612953186,-0.05,-0.04,0.08,0.1
6.16546893119812,-0.06,-0.05,0.07,0.1
6.173407793045044,-0.06,-0.04,0.08,0.1
6.1841418743133545,-0.05,-0.04,0.09,0.11
6.1953160762786865,-0.05,-0.05,0.08,0.1
6.204922914505005,-0.05,-0.05,0.07,0.09
6.216159105300903,-0.05,-0.05,0.07,0.09
6.223181962966919,-0.05,-0.05,0.07,0.09
6.2334489822387695,-0.05,-0.03,0.07,0.09
6.245138883590698,-0.05,-0.04,0.07,0.09
6.255480051040649,-0.05,-0.05,0.08,0.1
6.266740083694458,-0.06,-0.04,0.07,0.1
6.272786855697632,-0.06,-0.05,0.06,0.09
6.290900945663452,-0.06,-0.05,0.06,0.09
6.294626951217651,-0.06,-0.05,0.07,0.1
6.304600954055786,-0.06,-0.05,0.06,0.09
6.31547999382019,-0.05,-0.05,0.07,0.09
6.3222739696502686,-0.05,-0.05,0.07,0.09
6.332658052444458,-0.06,-0.05,0.07,0.1
6.343826055526733,-0.06,-0.05,0.07,0.1
6.354585886001587,-0.05,-0.05,0.07,0.09
6.367656946182251,-0.05,-0.04,0.06,0.08
6.372369050979614,-0.05,-0.03,0.08,0.09
6.393390893936157,-0.05,-0.05,0.07,0.09
6.39643406867981,-0.05,-0.06,0.08,0.11
6.4054648876190186,-0.05,-0.05,0.07,0.09
6.413466930389404,-0.05,-0.04,0.07,0.09
6.422491788864136,-0.05,-0.05,0.07,0.09
6.432165861129761,-0.05,-0.04,0.07,0.09
6.444087982177734,-0.06,-0.05,0.06,0.09
6.45346999168396,-0.06,-0.06,0.07,0.11
6.463334798812866,-0.05,-0.05,0.07,0.09
6.4712769985198975,-0.05,-0.04,0.07,0.09
6.483043909072876,-0.05,-0.04,0.07,0.09
6.493930101394653,-0.05,-0.05,0.07,0.09
6.5034239292144775,-0.06,-0.05,0.06,0.09
6.515985012054443,-0.05,-0.04,0.07,0.09
6.521412134170532,-0.04,-0.05,0.08,0.1
6.5316078662872314,-0.06,-0.05,0.07,0.1
6.543442964553833,-0.06,-0.04,0.06,0.09
6.55324387550354,-0.06,-0.05,0.07,0.1
6.565686941146851,-0.05,-0.04,0.07,0.09
6.570574045181274,-0.05,-0.04,0.06,0.08
6.580981016159058,-0.05,-0.05,0.07,0.09
6.592474937438965,-0.05,-0.04,0.07,0.09
6.603312015533447,-0.06,-0.04,0.07,0.1
6.614349126815796,-0.05,-0.06,0.06,0.09
6.620342969894409,-0.06,-0.05,0.06,0.09
6.632751941680908,-0.05,-0.04,0.07,0.09
6.641351938247681,-0.05,-0.04,0.07,0.09
6.6526877880096436,-0.05,-0.04,0.06,0.08
6.66757607460022,-0.06,-0.04,0.07,0.1
6.669953107833862,-0.05,-0.04,0.07,0.09
6.680826902389526,-0.06,-0.04,0.08,0.1
6.691533803939819,-0.05,-0.04,0.06,0.08
6.702507972717285,-0.05,-0.05,0.07,0.09
6.713032960891724,-0.05,-0.04,0.07,0.09
6.719958066940308,-0.05,-0.05,0.07,0.09
6.731058835983276,-0.05,-0.05,0.07,0.09
6.741950988769531,-0.05,-0.04,0.07,0.09
6.752358913421631,-0.05,-0.05,0.08,0.1
6.767298936843872,-0.05,-0.05,0.07,0.09
6.76941704750061,-0.06,-0.04,0.06,0.09
6.780011892318726,-0.05,-0.04,0.07,0.09
6.791445016860962,-0.05,-0.05,0.07,0.09
6.801406145095825,-0.05,-0.04,0.07,0.09
6.812274932861328,-0.05,-0.04,0.07,0.09
6.8192298412323,-0.05,-0.04,0.07,0.09
6.829602003097534,-0.05,-0.04,0.06,0.08
6.841192007064819,-0.05,-0.04,0.07,0.09
6.851238965988159,-0.06,-0.04,0.07,0.1
6.86499810218811,-0.06,-0.05,0.06,0.09
6.868981122970581,-0.05,-0.05,0.07,0.09
6.879165887832642,-0.05,-0.05,0.05,0.08
6.8915839195251465,-0.06,-0.04,0.07,0.1
6.9009668827056885,-0.05,-0.04,0.07,0.09
6.910978078842163,-0.05,-0.04,0.07,0.09
6.91875696182251,-0.05,-0.04,0.07,0.09
6.930773973464966,-0.05,-0.05,0.07,0.09
6.9406211376190186,-0.05,-0.04,0.06,0.08
6.950325012207031,-0.05,-0.04,0.07,0.09
6.963334798812866,-0.05,-0.05,0.07,0.09
6.968281984329224,-0.05,-0.04,0.06,0.08
6.978609800338745,-0.05,-0.04,0.07,0.09
6.989512920379639,-0.05,-0.04,0.07,0.09
6.99962592124939,-0.05,-0.04,0.07,0.09
7.014761924743652,-0.05,-0.05,0.07,0.09
7.017746925354004,-0.06,-0.05,0.06,0.09
7.029288053512573,-0.06,-0.05,0.06,0.09
7.040669918060303,-0.06,-0.04,0.08,0.1
7.05088996887207,-0.04,-0.05,0.07,0.09
7.0617969036102295,-0.05,-0.05,0.06,0.09
7.0674450397491455,-0.05,-0.05,0.07,0.09
7.077649831771851,-0.06,-0.04,0.07,0.1
7.090632915496826,-0.05,-0.05,0.06,0.09
7.099652051925659,-0.05,-0.04,0.07,0.09
7.112303018569946,-0.05,-0.05,0.06,0.09
7.116940975189209,-0.05,-0.05,0.07,0.09
7.126967906951904,-0.05,-0.04,0.07,0.09
7.139436960220337,-0.05,-0.05,0.06,0.09
7.148847818374634,-0.04,-0.05,0.06,0.08
7.160378932952881,-0.04,-0.04,0.06,0.08
7.16690993309021,-0.05,-0.04,0.07,0.09
7.176851034164429,-0.06,-0.05,0.06,0.09
7.189648866653442,-0.05,-0.04,0.08,0.1
7.198593854904175,-0.05,-0.05,0.06,0.09
7.209808111190796,-0.05,-0.04,0.07,0.09
7.216404914855957,-0.05,-0.04,0.07,0.09
7.226607084274292,-0.06,-0.05,0.07,0.1
7.239155054092407,-0.06,-0.04,0.06,0.09
7.247822999954224,-0.05,-0.04,0.06,0.08
7.259160995483398,-0.06,-0.04,0.07,0.1
7.266146898269653,-0.05,-0.04,0.06,0.08
7.278158903121948,-0.05,-0.05,0.06,0.09
7.2879509925842285,-0.06,-0.05,0.07,0.1
7.297621965408325,-0.05,-0.05,0.07,0.09
7.308049917221069,-0.06,-0.04,0.07,0.1
7.315766096115112,-0.05,-0.04,0.06,0.08
7.3262939453125,-0.05,-0.05,0.07,0.09
7.338593006134033,-0.05,-0.04,0.07,0.09
7.347630977630615,-0.05,-0.04,0.06,0.08
7.358673810958862,-0.05,-0.05,0.06,0.09
7.365156888961792,-0.05,-0.04,0.06,0.08
7.377717018127441,-0.05,-0.05,0.07,0.09
7.387148141860962,-0.05,-0.04,0.06,0.08
7.396619081497192,-0.05,-0.04,0.06,0.08
7.407821893692017,-0.05,-0.04,0.06,0.08
7.4156200885772705,-0.05,-0.04,0.05,0.08
7.427897930145264,-0.06,-0.04,0.06,0.09
7.436509847640991,-0.05,-0.04,0.06,0.08
7.447316884994507,-0.05,-0.03,0.07,0.09
7.458838939666748,-0.05,-0.04,0.06,0.08
7.464975118637085,-0.05,-0.03,0.06,0.08
7.475016832351685,-0.05,-0.04,0.06,0.08
7.4866578578948975,-0.05,-0.05,0.06,0.09
7.496448993682861,-0.05,-0.04,0.07,0.09
7.507928133010864,-0.05,-0.04,0.06,0.08
7.514379978179932,-0.06,-0.05,0.06,0.09
7.524507999420166,-0.05,-0.05,0.06,0.09
7.536608934402466,-0.04,-0.04,0.07,0.09
7.546795129776001,-0.05,-0.04,0.06,0.08
7.559405088424683,-0.05,-0.04,0.05,0.08
7.5643439292907715,-0.06,-0.04,0.07,0.1
7.5742480754852295,-0.05,-0.05,0.05,0.08
7.584006071090698,-0.06,-0.05,0.06,0.09
7.596143960952759,-0.05,-0.05,0.07,0.09
7.6093809604644775,-0.05,-0.04,0.06,0.08
7.613497018814087,-0.05,-0.04,0.05,0.08
7.623600006103516,-0.05,-0.05,0.06,0.09
7.635917901992798,-0.06,-0.05,0.05,0.09
7.645723104476929,-0.06,-0.04,0.05,0.08
7.65524697303772,-0.05,-0.05,0.07,0.09
7.663581132888794,-0.05,-0.04,0.07,0.09
7.673962831497192,-0.05,-0.05,0.06,0.09
7.685460805892944,-0.05,-0.05,0.06,0.09
7.695903062820435,-0.05,-0.04,0.06,0.08
7.707878828048706,-0.05,-0.04,0.07,0.09
7.712990045547485,-0.05,-0.05,0.07,0.09
7.723203897476196,-0.06,-0.05,0.06,0.09
7.736736059188843,-0.05,-0.05,0.05,0.08
7.744841814041138,-0.05,-0.04,0.05,0.08
7.754755020141602,-0.06,-0.05,0.06,0.09
7.762628793716431,-0.05,-0.05,0.06,0.09
7.772783994674683,-0.05,-0.05,0.06,0.09
7.785703897476196,-0.05,-0.04,0.05,0.08
7.794268846511841,-0.05,-0.04,0.06,0.08
7.802410840988159,-0.05,-0.04,0.07,0.09
7.812731981277466,-0.05,-0.04,0.05,0.08
7.824090957641602,-0.06,-0.04,0.06,0.09
7.832499980926514,-0.05,-0.04,0.06,0.08
7.844232797622681,-0.05,-0.05,0.06,0.09
7.853846788406372,-0.05,-0.05,0.06,0.09
7.862195014953613,-0.05,-0.05,0.06,0.09
7.87391209602356,-0.05,-0.05,0.05,0.08
7.883943796157837,-0.05,-0.05,0.06,0.09
7.893558979034424,-0.06,-0.05,0.05,0.09
7.907368898391724,-0.06,-0.05,0.06,0.09
7.911813020706177,-0.05,-0.04,0.06,0.08
7.922032117843628,-0.05,-0.05,0.06,0.09
7.9338538646698,-0.06,-0.05,0.06,0.09
7.943325996398926,-0.05,-0.04,0.07,0.09
7.954483985900879,-0.05,-0.05,0.05,0.08
7.961524963378906,-0.05,-0.04,0.06,0.08
7.973195791244507,-0.05,-0.05,0.06,0.09
7.983559846878052,-0.05,-0.04,0.05,0.08
7.991421937942505,-0.05,-0.05,0.06,0.09
8.001438856124878,-0.05,-0.05,0.06,0.09
8.011389017105103,-0.05,-0.05,0.05,0.08
8.023155927658081,-0.05,-0.05,0.06,0.09
8.031157970428467,-0.05,-0.04,0.06,0.08
8.042423963546753,-0.05,-0.04,0.06,0.08
8.053076028823853,-0.06,-0.05,0.06,0.09
8.061074018478394,-0.05,-0.04,0.07,0.09
8.0724618434906,-0.05,-0.04,0.06,0.08
8.082732915878296,-0.05,-0.05,0.05,0.08
8.0923330783844,-0.05,-0.04,0.06,0.08
8.101879835128784,-0.05,-0.05,0.05,0.08
8.110783815383911,-0.05,-0.06,0.06,0.09
8.124881982803345,-0.05,-0.05,0.05,0.08
8.130078077316284,-0.05,-0.05,0.06,0.09
8.141177892684937,-0.05,-0.05,0.06,0.09
8.150512933731079,-0.05,-0.04,0.05,0.08
8.159878015518188,-0.05,-0.04,0.06,0.08
8.171499013900757,-0.06,-0.05,0.06,0.09
8.181514024734497,-0.05,-0.04,0.06,0.08
8.19138503074646,-0.05,-0.05,0.05,0.08
8.202451944351196,-0.05,-0.05,0.05,0.08
8.212325811386108,-0.06,-0.04,0.05,0.08
8.220771074295044,-0.06,-0.04,0.05,0.08
8.232316017150879,-0.06,-0.05,0.06,0.09
8.241585969924927,-0.05,-0.05,0.06,0.09
8.256654977798462,-0.05,-0.05,0.06,0.09
8.259331941604614,-0.05,-0.05,0.05,0.08
8.271440982818604,-0.05,-0.05,0.06,0.09
8.28081488609314,-0.05,-0.05,0.05,0.08
8.29137897491455,-0.04,-0.04,0.05,0.07
8.303306818008423,-0.04,-0.04,0.05,0.07
8.309014081954956,-0.05,-0.04,0.06,0.08
8.319894075393677,-0.05,-0.04,0.06,0.08
8.331408977508545,-0.05,-0.05,0.05,0.08
8.340802907943726,-0.05,-0.04,0.05,0.08
8.350445985794067,-0.05,-0.05,0.04,0.08
8.358276128768921,-0.05,-0.05,0.04,0.08
8.369925022125244,-0.05,-0.05,0.05,0.08
8.380944967269897,-0.05,-0.05,0.06,0.09
8.390527963638306,-0.05,-0.04,0.06,0.08
8.400444984436035,-0.04,-0.04,0.06,0.08
8.410386800765991,-0.05,-0.04,0.06,0.08
8.42003083229065,-0.05,-0.04,0.05,0.08
8.430120944976807,-0.05,-0.04,0.06,0.08
8.440410852432251,-0.05,-0.05,0.07,0.09
8.451321840286255,-0.05,-0.05,0.05,0.08
8.45751690864563,-0.05,-0.05,0.05,0.08
8.470732927322388,-0.06,-0.04,0.05,0.08
8.479116916656494,-0.06,-0.04,0.05,0.08
8.490188837051392,-0.05,-0.04,0.05,0.08
8.505078077316284,-0.05,-0.05,0.06,0.09
8.507329940795898,-0.06,-0.05,0.05,0.09
8.520133018493652,-0.05,-0.05,0.05,0.08
8.52949595451355,-0.05,-0.04,0.05,0.08
8.53897213935852,-0.05,-0.05,0.05,0.08
8.548890829086304,-0.04,-0.05,0.05,0.08
8.560126066207886,-0.03,-0.06,0.04,0.07
8.569331884384155,0.0,-0.06,0.06,0.08
8.579324007034302,-0.04,-0.05,0.06,0.08
8.589388132095337,-0.14,-0.04,0.05,0.15
8.599803924560547,-0.16,-0.02,0.05,0.16
8.606884956359863,-0.06,-0.02,0.04,0.07
8.623113870620728,0.04,-0.04,0.05,0.07
8.628537893295288,0.01,-0.04,0.06,0.07
8.6384859085083,-0.07,-0.05,0.05,0.09
8.650177001953125,-0.1,-0.06,0.04,0.12
8.656277894973755,-0.07,-0.06,0.04,0.1
8.672145128250122,-0.03,-0.05,0.05,0.07
8.676105976104736,-0.02,-0.05,0.06,0.08
8.692681074142456,-0.04,-0.04,0.06,0.08
8.701781988143921,-0.04,-0.04,0.06,0.08
8.706083059310913,-0.06,-0.04,0.05,0.08
8.719532012939453,-0.07,-0.05,0.03,0.09
8.728601932525635,-0.06,-0.06,0.04,0.09
8.737786054611206,-0.05,-0.06,0.05,0.09
8.745796918869019,-0.05,-0.05,0.05,0.08
8.75611400604248,-0.06,-0.03,0.05,0.08
8.768882036209106,-0.08,-0.04,0.05,0.1
8.775398969650269,-0.06,-0.04,0.05,0.08
8.787868022918701,-0.05,-0.04,0.05,0.08
8.801147937774658,-0.03,-0.04,0.05,0.07
8.805306911468506,-0.04,-0.04,0.05,0.07
8.822148084640503,-0.06,-0.05,0.04,0.08
8.82777190208435,-0.07,-0.04,0.04,0.09
8.838303804397583,-0.06,-0.05,0.04,0.08
8.847718000411987,-0.04,-0.04,0.05,0.07
8.854963064193726,-0.05,-0.04,0.05,0.08
8.865003824234009,-0.04,-0.05,0.06,0.08
8.877478837966919,-0.06,-0.04,0.05,0.08
8.887639999389648,-0.07,-0.05,0.05,0.09
8.898391962051392,-0.06,-0.05,0.04,0.08
8.904948949813843,-0.05,-0.05,0.05,0.08
8.915004014968872,-0.03,-0.05,0.04,0.07
8.927587985992432,-0.04,-0.06,0.05,0.08
8.934603929519653,-0.07,-0.05,0.06,0.1
8.944703817367554,-0.08,-0.04,0.06,0.1
8.957310914993286,-0.05,-0.05,0.05,0.08
8.964053869247437,-0.05,-0.05,0.05,0.08
8.977265119552612,-0.04,-0.06,0.04,0.08
8.985777139663696,-0.04,-0.06,0.04,0.08
8.996885061264038,-0.03,-0.06,0.04,0.07
9.006963014602661,-0.06,-0.05,0.04,0.08
9.016690969467163,-0.07,-0.05,0.05,0.09
9.026478052139282,-0.08,-0.05,0.05,0.1
9.036231994628906,-0.06,-0.04,0.05,0.08
9.044750928878784,-0.04,-0.04,0.05,0.07
9.05666708946228,-0.04,-0.05,0.04,0.07
9.063544988632202,-0.05,-0.05,0.04,0.08
9.076794862747192,-0.06,-0.06,0.04,0.09
9.086009979248047,-0.06,-0.05,0.04,0.08
9.097190141677856,-0.05,-0.04,0.04,0.07
9.104280948638916,-0.05,-0.03,0.04,0.07
9.116222143173218,-0.05,-0.04,0.05,0.08
9.12531304359436,-0.05,-0.04,0.04,0.07
9.135678052902222,-0.05,-0.04,0.05,0.08
9.149807929992676,-0.06,-0.04,0.05,0.08
9.152838945388794,-0.06,-0.04,0.05,0.08
9.165534019470215,-0.06,-0.05,0.05,0.09
9.175506830215454,-0.05,-0.04,0.04,0.07
9.18330979347229,-0.05,-0.05,0.05,0.08
9.19323992729187,-0.06,-0.05,0.04,0.08
9.205156087875366,-0.06,-0.04,0.04,0.08
9.21529507637024,-0.04,-0.05,0.04,0.07
9.224735021591187,-0.04,-0.05,0.05,0.08
9.234904050827026,-0.06,-0.04,0.04,0.08
9.245381116867065,-0.07,-0.05,0.04,0.09
9.252711057662964,-0.05,-0.04,0.05,0.08
9.265533924102783,-0.05,-0.04,0.04,0.07
9.273711919784546,-0.05,-0.04,0.04,0.07
9.284487962722778,-0.05,-0.04,0.05,0.08
9.295321941375732,-0.05,-0.05,0.04,0.08
9.302011966705322,-0.06,-0.05,0.04,0.08
9.313318967819214,-0.06,-0.05,0.04,0.08
9.323390007019043,-0.06,-0.05,0.04,0.08
9.333986043930054,-0.05,-0.04,0.05,0.08
9.349323987960815,-0.04,-0.05,0.05,0.08
9.35158395767212,-0.05,-0.04,0.05,0.08
9.364051103591919,-0.06,-0.04,0.05,0.08
9.373889923095703,-0.06,-0.04,0.04,0.08
9.383713960647583,-0.05,-0.04,0.04,0.07
9.392845869064331,-0.04,-0.04,0.04,0.06
9.403388977050781,-0.04,-0.04,0.05,0.07
9.413043022155762,-0.06,-0.04,0.05,0.08
9.422431945800781,-0.06,-0.03,0.05,0.08
9.433342933654785,-0.05,-0.04,0.05,0.08
9.44321894645691,-0.05,-0.05,0.04,0.08
9.453881978988647,-0.06,-0.04,0.05,0.08
9.462996006011963,-0.05,-0.04,0.05,0.08
9.473571062088013,-0.04,-0.04,0.05,0.07
9.48307204246521,-0.05,-0.04,0.05,0.08
9.497257947921753,-0.06,-0.04,0.05,0.08
9.50062108039856,-0.05,-0.05,0.05,0.08
9.512954950332642,-0.05,-0.05,0.04,0.08
9.522511005401611,-0.05,-0.04,0.05,0.08
9.532942056655884,-0.06,-0.05,0.04,0.08
9.544417142868042,-0.06,-0.05,0.04,0.08
9.550348043441772,-0.04,-0.05,0.05,0.08
9.563085794448853,-0.05,-0.04,0.05,0.08
9.572736978530884,-0.05,-0.05,0.04,0.08
9.581902980804443,-0.05,-0.05,0.04,0.08
9.595477819442749,-0.04,-0.05,0.04,0.07
9.60011887550354,-0.05,-0.04,0.04,0.07
9.612677812576294,-0.05,-0.05,0.04,0.08
9.621844053268433,-0.06,-0.04,0.04,0.08
9.63223385810852,-0.05,-0.03,0.05,0.07
9.640249013900757,-0.05,-0.05,0.05,0.08
9.649769067764282,-0.04,-0.05,0.04,0.07
9.661767959594727,-0.06,-0.05,0.04,0.08
9.672717809677124,-0.06,-0.05,0.04,0.08
9.682297945022583,-0.06,-0.05,0.04,0.08
9.697284936904907,-0.05,-0.05,0.04,0.08
9.700464010238647,-0.04,-0.05,0.04,0.07
9.71327805519104,-0.05,-0.04,0.03,0.07
9.722709894180298,-0.05,-0.04,0.04,0.07
9.733191013336182,-0.06,-0.04,0.04,0.08
9.747205018997192,-0.05,-0.05,0.04,0.08
9.75043797492981,-0.05,-0.05,0.04,0.08
9.76002812385559,-0.05,-0.05,0.05,0.08
9.772929906845093,-0.05,-0.04,0.04,0.07
9.782266855239868,-0.05,-0.05,0.05,0.08
9.793016910552979,-0.06,-0.04,0.05,0.08
9.800025939941406,-0.07,-0.05,0.04,0.09
9.812350034713745,-0.05,-0.05,0.04,0.08
9.821256875991821,-0.05,-0.05,0.04,0.08
9.831255912780762,-0.05,-0.05,0.04,0.08
9.843108892440796,-0.05,-0.04,0.04,0.07
9.84992003440857,-0.05,-0.05,0.04,0.08
9.860484838485718,-0.05,-0.04,0.04,0.07
9.872000932693481,-0.06,-0.04,0.04,0.08
9.881592988967896,-0.05,-0.04,0.04,0.07
9.890205144882202,-0.04,-0.04,0.04,0.06
9.899260997772217,-0.05,-0.04,0.03,0.07
9.911403894424438,-0.05,-0.05,0.03,0.07
9.921327829360962,-0.06,-0.05,0.03,0.08
9.931749105453491,-0.06,-0.04,0.04,0.08
9.943732023239136,-0.05,-0.04,0.04,0.07
9.948734998703003,-0.05,-0.05,0.03,0.07
9.96195912361145,-0.04,-0.04,0.04,0.06
9.970743894577026,-0.06,-0.04,0.04,0.08
9.980297803878784,-0.06,-0.04,0.04,0.08
9.992249965667725,-0.06,-0.04,0.04,0.08
10.001521825790405,-0.05,-0.05,0.04,0.08
10.011351823806763,-0.04,-0.04,0.03,0.06
10.02071213722229,-0.05,-0.04,0.03,0.07
10.030702829360962,-0.05,-0.05,0.04,0.08
10.0393807888031,-0.05,-0.05,0.03,0.07
10.04845404624939,-0.04,-0.05,0.04,0.07
10.060992956161499,-0.05,-0.05,0.04,0.08
10.068182945251465,-0.05,-0.03,0.03,0.06
10.081154108047485,-0.04,-0.05,0.04,0.07
10.093510866165161,-0.05,-0.04,0.04,0.07
10.097706079483032,-0.05,-0.05,0.04,0.08
10.110338926315308,-0.04,-0.05,0.03,0.07
10.120728015899658,-0.05,-0.05,0.04,0.08
10.127734899520874,-0.05,-0.04,0.03,0.07
10.137980937957764,-0.07,-0.04,0.03,0.08
10.15159010887146,-0.06,-0.05,0.04,0.08
10.157551050186157,-0.05,-0.05,0.03,0.07
10.17027997970581,-0.04,-0.04,0.03,0.06
10.179025888442993,-0.04,-0.04,0.03,0.06
10.190344095230103,-0.05,-0.05,0.03,0.07
10.198431015014648,-0.06,-0.05,0.03,0.08
10.208825826644897,-0.06,-0.05,0.03,0.08
10.21971583366394,-0.05,-0.05,0.04,0.08
10.229706048965454,-0.05,-0.03,0.03,0.06
10.241321802139282,-0.04,-0.04,0.02,0.06
10.246803998947144,-0.04,-0.05,0.03,0.07
10.259655952453613,-0.06,-0.05,0.04,0.08
10.269046068191528,-0.06,-0.05,0.03,0.08
10.278873920440674,-0.05,-0.05,0.03,0.07
10.288617849349976,-0.04,-0.05,0.03,0.07
10.298231840133667,-0.04,-0.05,0.03,0.07
10.309263944625854,-0.05,-0.05,0.03,0.07
10.319477796554565,-0.07,-0.04,0.03,0.08
10.329223871231079,-0.06,-0.04,0.03,0.07
10.344055891036987,-0.05,-0.05,0.02,0.07
10.346352815628052,-0.04,-0.05,0.03,0.07
10.356127977371216,-0.04,-0.04,0.03,0.06
10.369014024734497,-0.05,-0.04,0.03,0.07
10.379266023635864,-0.06,-0.05,0.02,0.08
10.386141061782837,-0.05,-0.04,0.03,0.07
10.395802974700928,-0.05,-0.04,0.04,0.07
10.409284830093384,-0.04,-0.05,0.02,0.06
10.415812015533447,-0.03,-0.05,0.02,0.06
10.428582906723022,-0.05,-0.05,0.02,0.07
10.440674066543579,-0.05,-0.05,0.02,0.07
10.446122884750366,-0.06,-0.05,0.02,0.08
10.458813905715942,-0.05,-0.04,0.03,0.07
10.466388940811157,-0.06,-0.03,0.02,0.06
10.477874040603638,-0.05,-0.03,0.02,0.06
10.489666938781738,-0.04,-0.03,0.03,0.05
10.495767831802368,-0.05,-0.04,0.03,0.07
10.50789999961853,-0.05,-0.05,0.02,0.07
10.518304109573364,-0.05,-0.04,0.02,0.06
10.527578115463257,-0.04,-0.05,0.02,0.06
10.536578893661499,-0.04,-0.05,0.02,0.06
10.548022031784058,-0.05,-0.05,0.03,0.07
10.554770946502686,-0.05,-0.04,0.03,0.07
10.568598985671997,-0.06,-0.04,0.03,0.07
10.576838970184326,-0.06,-0.03,0.03,0.07
10.587484121322632,-0.05,-0.04,0.03,0.07
10.595438003540039,-0.05,-0.04,0.04,0.07
10.607837915420532,-0.04,-0.05,0.03,0.07
10.617357015609741,-0.05,-0.05,0.02,0.07
10.626487016677856,-0.06,-0.05,0.02,0.08
10.634773969650269,-0.05,-0.04,0.03,0.07
10.646374940872192,-0.05,-0.04,0.03,0.07
10.65736699104309,-0.05,-0.03,0.03,0.06
10.666144132614136,-0.05,-0.03,0.03,0.06
10.677736043930054,-0.06,-0.05,0.03,0.08
10.689071893692017,-0.06,-0.05,0.03,0.08
10.696772813796997,-0.05,-0.04,0.03,0.07
10.703684091567993,-0.04,-0.04,0.03,0.06
10.715946912765503,-0.05,-0.04,0.04,0.07
10.72616696357727,-0.05,-0.05,0.03,0.07
10.735834836959839,-0.06,-0.05,0.04,0.08
10.743808031082153,-0.05,-0.04,0.04,0.07
10.755770921707153,-0.05,-0.04,0.03,0.07
10.766003847122192,-0.04,-0.04,0.03,0.06
10.775239944458008,-0.04,-0.04,0.03,0.06
10.790544986724854,-0.05,-0.04,0.03,0.07
10.793452024459839,-0.06,-0.05,0.03,0.08
10.804227113723755,-0.05,-0.04,0.03,0.07
10.816356897354126,-0.06,-0.05,0.03,0.08
10.825537919998169,-0.05,-0.03,0.03,0.06
10.833279848098755,-0.05,-0.04,0.03,0.07
10.844502925872803,-0.05,-0.04,0.03,0.07
10.855468988418579,-0.05,-0.05,0.02,0.07
10.866152048110962,-0.06,-0.05,0.03,0.08
10.87568998336792,-0.05,-0.05,0.03,0.07
10.950176000595093,-0.05,-0.04,0.03,0.07
10.950973987579346,-0.05,-0.05,0.03,0.07
10.951412916183472,-0.06,-0.04,0.03,0.07
10.952021837234497,-0.05,-0.04,0.03,0.07
10.952454805374146,-0.05,-0.03,0.04,0.07
10.95644211769104,-0.05,-0.05,0.03,0.07
10.957051038742065,-0.04,-0.03,0.03,0.05
10.972237825393677,-0.06,-0.04,0.03,0.07
10.972851037979126,-0.05,-0.05,0.04,0.08
10.988417863845825,-0.05,-0.04,0.04,0.07
10.992674112319946,-0.06,-0.05,0.04,0.08
11.005378007888794,-0.05,-0.04,0.04,0.07
11.006001949310303,-0.05,-0.04,0.04,0.07
11.011873960494995,-0.05,-0.04,0.04,0.07
11.021866083145142,-0.04,-0.04,0.03,0.06
11.03218388557434,-0.05,-0.04,0.03,0.07
11.041674852371216,-0.05,-0.04,0.03,0.07
11.051850080490112,-0.05,-0.05,0.02,0.07
11.061779022216797,-0.05,-0.05,0.03,0.07
11.071365118026733,-0.05,-0.04,0.02,0.06
11.081563949584961,-0.05,-0.05,0.04,0.08
11.091531038284302,-0.06,-0.05,0.03,0.08
11.101478815078735,-0.05,-0.05,0.04,0.08
11.111814022064209,-0.05,-0.04,0.04,0.07
11.122341871261597,-0.05,-0.04,0.04,0.07
11.131801843643188,-0.05,-0.04,0.03,0.07
11.143512964248657,-0.05,-0.05,0.03,0.07
11.152294874191284,-0.05,-0.05,0.03,0.07
11.16330099105835,-0.04,-0.05,0.03,0.07
11.174247026443481,-0.05,-0.04,0.04,0.07
11.184767961502075,-0.05,-0.05,0.03,0.07
11.190788984298706,-0.05,-0.04,0.04,0.07
11.202073812484741,-0.05,-0.04,0.04,0.07
11.213825941085815,-0.05,-0.05,0.04,0.08
11.222892045974731,-0.04,-0.04,0.03,0.06
11.23741602897644,-0.05,-0.05,0.03,0.07
11.240372896194458,-0.05,-0.03,0.04,0.07
11.255314111709595,-0.05,-0.04,0.04,0.07
11.261819124221802,-0.05,-0.04,0.04,0.07
11.272499799728394,-0.05,-0.05,0.04,0.08
11.283464908599854,-0.05,-0.05,0.04,0.08
11.290802955627441,-0.05,-0.04,0.03,0.07
11.301620960235596,-0.05,-0.04,0.03,0.07
11.312628984451294,-0.04,-0.04,0.03,0.06
11.322765111923218,-0.05,-0.06,0.04,0.08
11.338783979415894,-0.05,-0.05,0.04,0.08
11.33984899520874,-0.05,-0.03,0.03,0.06
11.34993290901184,-0.05,-0.04,0.03,0.07
11.360155820846558,-0.05,-0.04,0.04,0.07
11.372897863388062,-0.06,-0.04,0.03,0.07
11.379924058914185,-0.05,-0.05,0.04,0.08
11.389801025390625,-0.05,-0.05,0.04,0.08
11.402281999588013,-0.05,-0.05,0.02,0.07
11.411903142929077,-0.04,-0.04,0.03,0.06
11.422060012817383,-0.05,-0.05,0.04,0.08
11.433260917663574,-0.05,-0.05,0.03,0.07
11.439291000366211,-0.05,-0.03,0.04,0.07
11.456363916397095,-0.04,-0.04,0.04,0.06
11.459206819534302,-0.05,-0.04,0.03,0.07
11.470807790756226,-0.05,-0.04,0.03,0.07
11.479442834854126,-0.05,-0.05,0.03,0.07
11.488855123519897,-0.04,-0.05,0.03,0.07
11.501961946487427,-0.05,-0.04,0.03,0.07
11.510715007781982,-0.06,-0.04,0.03,0.07
11.520420789718628,-0.05,-0.04,0.04,0.07
11.529300928115845,-0.05,-0.04,0.03,0.07
11.539261102676392,-0.06,-0.05,0.04,0.08
11.550766944885254,-0.05,-0.05,0.04,0.08
11.560878038406372,-0.05,-0.04,0.04,0.07
11.570482969284058,-0.05,-0.04,0.03,0.07
11.57923698425293,-0.05,-0.04,0.04,0.07
11.588114976882935,-0.05,-0.05,0.03,0.07
11.600824117660522,-0.05,-0.04,0.03,0.07
11.61004900932312,-0.05,-0.04,0.02,0.06
11.61965298652649,-0.05,-0.04,0.04,0.07
11.629642963409424,-0.05,-0.05,0.04,0.08
11.638186931610107,-0.05,-0.05,0.03,0.07
11.65046501159668,-0.05,-0.04,0.03,0.07
11.659034013748169,-0.05,-0.04,0.03,0.07
11.670839071273804,-0.05,-0.05,0.04,0.08
11.680316925048828,-0.05,-0.04,0.04,0.07
11.690001010894775,-0.05,-0.05,0.03,0.07
11.699782133102417,-0.05,-0.04,0.03,0.07
11.709297895431519,-0.06,-0.04,0.03,0.07
11.719789981842041,-0.05,-0.04,0.03,0.07
11.732132911682129,-0.05,-0.05,0.04,0.08
11.73685097694397,-0.05,-0.04,0.03,0.07
11.748763799667358,-0.05,-0.04,0.03,0.07
11.759490013122559,-0.05,-0.04,0.04,0.07
11.769073009490967,-0.05,-0.04,0.03,0.07
11.783272981643677,-0.06,-0.04,0.04,0.08
11.786433935165405,-0.06,-0.04,0.03,0.07
11.805840015411377,-0.05,-0.05,0.03,0.07
11.80842900276184,-0.06,-0.04,0.03,0.07
11.818181991577148,-0.06,-0.04,0.03,0.07
11.826828002929688,-0.05,-0.05,0.03,0.07
11.838888883590698,-0.05,-0.05,0.04,0.08
11.848431825637817,-0.05,-0.04,0.03,0.07
11.8579580783844,-0.05,-0.04,0.03,0.07
11.869538068771362,-0.05,-0.04,0.04,0.07
11.880053997039795,-0.06,-0.05,0.03,0.08
11.88577389717102,-0.05,-0.04,0.03,0.07
11.89661693572998,-0.05,-0.04,0.03,0.07
11.908610105514526,-0.06,-0.05,0.04,0.08
11.917918920516968,-0.05,-0.05,0.03,0.07
11.928539991378784,-0.05,-0.05,0.03,0.07
11.93632698059082,-0.06,-0.04,0.04,0.08
11.945876836776733,-0.05,-0.04,0.04,0.07
11.957762956619263,-0.05,-0.04,0.03,0.07
11.967171907424927,-0.05,-0.04,0.03,0.07
11.977985143661499,-0.05,-0.04,0.03,0.07
11.984936952590942,-0.05,-0.04,0.03,0.07
11.997811079025269,-0.06,-0.04,0.03,0.07
12.007159948348999,-0.05,-0.04,0.03,0.07
12.017391920089722,-0.05,-0.04,0.03,0.07
12.033003091812134,-0.05,-0.04,0.03,0.07
12.034672975540161,-0.05,-0.04,0.03,0.07
12.047084093093872,-0.05,-0.04,0.04,0.07
12.056819915771484,-0.05,-0.04,0.03,0.07
12.067196130752563,-0.05,-0.05,0.03,0.07
12.076550960540771,-0.05,-0.04,0.04,0.07
12.087207078933716,-0.05,-0.04,0.03,0.07
12.096803903579712,-0.06,-0.04,0.04,0.08
12.106568098068237,-0.05,-0.04,0.04,0.07
12.114289045333862,-0.04,-0.04,0.04,0.06
12.1271231174469,-0.05,-0.04,0.03,0.07
12.134443044662476,-0.06,-0.04,0.03,0.07
12.14679503440857,-0.05,-0.04,0.03,0.07
12.155828952789307,-0.05,-0.04,0.03,0.07
12.166904926300049,-0.05,-0.05,0.03,0.07
12.179983854293823,-0.05,-0.04,0.04,0.07
12.184149980545044,-0.05,-0.04,0.03,0.07
12.19614291191101,-0.05,-0.05,0.03,0.07
12.205764055252075,-0.05,-0.04,0.03,0.07
12.216133832931519,-0.05,-0.04,0.02,0.06
12.227172136306763,-0.05,-0.05,0.04,0.08
12.233521938323975,-0.05,-0.05,0.03,0.07
12.243408918380737,-0.05,-0.05,0.04,0.08
12.255665063858032,-0.05,-0.04,0.04,0.07
12.266207933425903,-0.05,-0.04,0.03,0.07
12.27707314491272,-0.04,-0.04,0.03,0.06
12.283776998519897,-0.05,-0.04,0.03,0.07
12.295442819595337,-0.05,-0.05,0.03,0.07
12.305187940597534,-0.05,-0.04,0.03,0.07
12.315423965454102,-0.05,-0.05,0.03,0.07
12.331244945526123,-0.04,-0.04,0.04,0.06
12.332679033279419,-0.06,-0.04,0.04,0.08
12.345403909683228,-0.05,-0.03,0.04,0.07
12.354472875595093,-0.05,-0.04,0.03,0.07
12.364958047866821,-0.04,-0.05,0.03,0.07
12.37680983543396,-0.05,-0.04,0.03,0.07
12.382645845413208,-0.06,-0.04,0.03,0.07
12.392439126968384,-0.05,-0.04,0.03,0.07
12.405247926712036,-0.06,-0.04,0.03,0.07
12.414672136306763,-0.05,-0.04,0.04,0.07
12.424099922180176,-0.05,-0.03,0.03,0.06
12.432460069656372,-0.05,-0.04,0.03,0.07
12.44197392463684,-0.05,-0.04,0.03,0.07
12.454676866531372,-0.05,-0.04,0.04,0.07
12.464771032333374,-0.04,-0.04,0.03,0.06
12.472141981124878,-0.05,-0.03,0.03,0.06
12.482003927230835,-0.04,-0.05,0.04,0.07
12.494700908660889,-0.05,-0.05,0.04,0.08
12.50511384010315,-0.06,-0.04,0.03,0.07
12.513182878494263,-0.05,-0.04,0.03,0.07
12.521921873092651,-0.05,-0.04,0.04,0.07
12.531942129135132,-0.05,-0.04,0.03,0.07
12.544503927230835,-0.06,-0.04,0.04,0.08
12.551872968673706,-0.05,-0.04,0.03,0.07
12.562762975692749,-0.05,-0.04,0.03,0.07
12.574145078659058,-0.05,-0.05,0.03,0.07
12.581135034561157,-0.05,-0.04,0.04,0.07
12.592780828475952,-0.05,-0.04,0.04,0.07
12.60322880744934,-0.05,-0.03,0.04,0.07
12.613991975784302,-0.06,-0.05,0.03,0.08
12.630566835403442,-0.05,-0.04,0.03,0.07
12.631693124771118,-0.05,-0.04,0.04,0.07
12.641124963760376,-0.05,-0.04,0.04,0.07
12.651173830032349,-0.05,-0.04,0.03,0.07
12.662856817245483,-0.05,-0.04,0.04,0.07
12.672580003738403,-0.05,-0.04,0.04,0.07
12.680470943450928,-0.06,-0.04,0.04,0.08
12.693442106246948,-0.05,-0.03,0.04,0.07
12.702491044998169,-0.05,-0.03,0.03,0.06
12.713015794754028,-0.05,-0.04,0.04,0.07
12.72252893447876,-0.05,-0.05,0.03,0.07
12.730135917663574,-0.05,-0.04,0.04,0.07
12.741758108139038,-0.05,-0.04,0.04,0.07
12.75246787071228,-0.06,-0.04,0.04,0.08
12.762457132339478,-0.05,-0.04,0.04,0.07
12.776930093765259,-0.05,-0.04,0.03,0.07
12.779573917388916,-0.05,-0.04,0.03,0.07
12.79212498664856,-0.05,-0.04,0.04,0.07
12.802403926849365,-0.05,-0.04,0.03,0.07
12.811393976211548,-0.05,-0.04,0.03,0.07
12.822073936462402,-0.05,-0.05,0.04,0.08
12.829762935638428,-0.05,-0.04,0.03,0.07
12.841054916381836,-0.05,-0.04,0.03,0.07
12.851388931274414,-0.05,-0.04,0.03,0.07
12.862075090408325,-0.06,-0.04,0.03,0.07
12.878005981445312,-0.05,-0.04,0.03,0.07
12.879000902175903,-0.06,-0.03,0.02,0.06
12.889301061630249,-0.06,-0.04,0.03,0.07
12.898885011672974,-0.06,-0.05,0.03,0.08
12.912559986114502,-0.05,-0.04,0.04,0.07
12.923033952713013,-0.05,-0.04,0.03,0.07
12.929131984710693,-0.06,-0.04,0.03,0.07
12.938935995101929,-0.05,-0.03,0.04,0.07
12.951725006103516,-0.05,-0.04,0.04,0.07
12.961038827896118,-0.05,-0.03,0.04,0.07
12.973334074020386,-0.06,-0.05,0.03,0.08
12.978686094284058,-0.06,-0.04,0.04,0.08
12.988255023956299,-0.05,-0.03,0.03,0.06
13.00069785118103,-0.05,-0.03,0.03,0.06
13.011016130447388,-0.05,-0.04,0.03,0.07
13.025747060775757,-0.05,-0.04,0.03,0.07
13.027973890304565,-0.05,-0.04,0.03,0.07
13.03858208656311,-0.05,-0.04,0.03,0.07
13.051338911056519,-0.06,-0.04,0.04,0.08
13.059557914733887,-0.06,-0.04,0.04,0.08
13.071988821029663,-0.05,-0.04,0.03,0.07
13.077769994735718,-0.05,-0.03,0.04,0.07
13.087745904922485,-0.05,-0.04,0.04,0.07
13.10090184211731,-0.05,-0.04,0.03,0.07
13.109668970108032,-0.05,-0.04,0.04,0.07
13.117954969406128,-0.04,-0.04,0.03,0.06
13.126785039901733,-0.05,-0.04,0.03,0.07
13.138103008270264,-0.05,-0.04,0.03,0.07
13.149276971817017,-0.04,-0.03,0.04,0.06
13.158945798873901,-0.05,-0.04,0.03,0.07
13.173567056655884,-0.06,-0.04,0.04,0.08
13.176111936569214,-0.05,-0.04,0.04,0.07
13.188073873519897,-0.05,-0.04,0.04,0.07
13.198046922683716,-0.05,-0.04,0.03,0.07
13.207291841506958,-0.05,-0.04,0.03,0.07
13.218403100967407,-0.05,-0.04,0.03,0.07
13.226309061050415,-0.05,-0.03,0.03,0.06
13.238324880599976,-0.05,-0.04,0.03,0.07
13.247419118881226,-0.05,-0.04,0.04,0.07
13.257488012313843,-0.05,-0.04,0.03,0.07
13.266195058822632,-0.05,-0.04,0.03,0.07
13.275331974029541,-0.05,-0.04,0.03,0.07
13.287333965301514,-0.05,-0.04,0.02,0.06
13.297465085983276,-0.05,-0.04,0.03,0.07
13.306931972503662,-0.04,-0.04,0.03,0.06
13.31816291809082,-0.05,-0.03,0.03,0.06
13.325333833694458,-0.04,-0.04,0.04,0.06
13.338063955307007,-0.05,-0.03,0.03,0.06
13.346986055374146,-0.05,-0.03,0.04,0.07
13.357563018798828,-0.04,-0.04,0.03,0.06
13.364565134048462,-0.06,-0.04,0.03,0.07
13.376966953277588,-0.05,-0.03,0.03,0.06
13.38476014137268,-0.05,-0.03,0.04,0.07
13.39709210395813,-0.05,-0.03,0.03,0.06
13.406965017318726,-0.04,-0.04,0.03,0.06
13.418390035629272,-0.05,-0.03,0.04,0.07
13.424422025680542,-0.05,-0.04,0.03,0.07
13.434278011322021,-0.05,-0.04,0.03,0.07
13.446767091751099,-0.05,-0.05,0.02,0.07
13.456071138381958,-0.05,-0.04,0.04,0.07
13.46606993675232,-0.05,-0.03,0.04,0.07
13.473961114883423,-0.05,-0.04,0.03,0.07
13.483717918395996,-0.05,-0.03,0.03,0.06
13.49546504020691,-0.05,-0.03,0.03,0.06
13.506525993347168,-0.06,-0.03,0.04,0.07
13.518021821975708,-0.05,-0.03,0.03,0.06
13.523549795150757,-0.05,-0.03,0.03,0.06
13.535738945007324,-0.05,-0.03,0.02,0.06
13.545914888381958,-0.05,-0.04,0.03,0.07
13.55459189414978,-0.05,-0.04,0.03,0.07
13.564452886581421,-0.05,-0.04,0.04,0.07
13.573210000991821,-0.05,-0.04,0.03,0.07
13.585340976715088,-0.05,-0.03,0.03,0.06
13.594620943069458,-0.05,-0.03,0.03,0.06
13.60547399520874,-0.05,-0.04,0.04,0.07
13.614292860031128,-0.05,-0.04,0.04,0.07
13.625102996826172,-0.05,-0.04,0.03,0.07
13.634158849716187,-0.05,-0.04,0.03,0.07
13.644724130630493,-0.05,-0.04,0.03,0.07
13.65553092956543,-0.05,-0.03,0.03,0.06
13.671968936920166,-0.05,-0.03,0.04,0.07
13.672545909881592,-0.06,-0.03,0.03,0.07
13.682672023773193,-0.05,-0.04,0.03,0.07
13.69461178779602,-0.05,-0.04,0.04,0.07
13.703833818435669,-0.05,-0.04,0.03,0.07
13.715238809585571,-0.05,-0.03,0.03,0.06
13.7236168384552,-0.05,-0.03,0.03,0.06
13.734419107437134,-0.06,-0.04,0.04,0.08
13.744992017745972,-0.05,-0.03,0.03,0.06
13.75379204750061,-0.04,-0.03,0.03,0.05
13.766467809677124,-0.05,-0.03,0.03,0.06
13.771765947341919,-0.06,-0.03,0.03,0.07
13.790406942367554,-0.05,-0.04,0.03,0.07
13.795126914978027,-0.05,-0.03,0.03,0.06
13.804829835891724,-0.06,-0.04,0.04,0.08
13.813690900802612,-0.05,-0.04,0.02,0.06
13.822029829025269,-0.05,-0.04,0.03,0.07
13.832404851913452,-0.05,-0.05,0.03,0.07
13.844012975692749,-0.05,-0.04,0.03,0.07
13.852740049362183,-0.05,-0.04,0.03,0.07
13.864408016204834,-0.05,-0.04,0.03,0.07
13.871799945831299,-0.05,-0.03,0.04,0.07
13.881755113601685,-0.05,-0.04,0.03,0.07
13.893544912338257,-0.05,-0.04,0.04,0.07
13.90326714515686,-0.05,-0.04,0.03,0.07
13.915219068527222,-0.05,-0.04,0.03,0.07
13.921114921569824,-0.05,-0.04,0.03,0.07
13.931236028671265,-0.05,-0.04,0.03,0.07
13.943454027175903,-0.05,-0.03,0.03,0.06
13.95199990272522,-0.05,-0.03,0.03,0.06
13.962366819381714,-0.05,-0.04,0.03,0.07
13.970577955245972,-0.05,-0.04,0.03,0.07
13.982065916061401,-0.05,-0.04,0.03,0.07
13.993364095687866,-0.05,-0.03,0.04,0.07
14.0018150806427,-0.05,-0.03,0.04,0.07
14.015483140945435,-0.05,-0.03,0.04,0.07
14.020380020141602,-0.05,-0.03,0.03,0.06
14.03051495552063,-0.05,-0.03,0.03,0.06
14.04259705543518,-0.05,-0.03,0.04,0.07
14.052061796188354,-0.05,-0.03,0.03,0.06
14.064213991165161,-0.05,-0.04,0.03,0.07
14.07049298286438,-0.05,-0.03,0.04,0.07
14.080559968948364,-0.06,-0.03,0.03,0.07
14.092543840408325,-0.05,-0.04,0.03,0.07
14.102055788040161,-0.05,-0.04,0.02,0.06
14.114906072616577,-0.05,-0.04,0.03,0.07
14.119940042495728,-0.05,-0.03,0.03,0.06
14.130167007446289,-0.05,-0.03,0.04,0.07
14.141271829605103,-0.05,-0.03,0.04,0.07
14.15271782875061,-0.06,-0.04,0.02,0.07
14.167476892471313,-0.05,-0.04,0.03,0.07
14.169395923614502,-0.06,-0.03,0.04,0.07
14.192787885665894,-0.05,-0.04,0.03,0.07
14.196836948394775,-0.06,-0.04,0.03,0.07
14.199304819107056,-0.05,-0.04,0.03,0.07
14.209370851516724,-0.04,-0.03,0.03,0.05
14.219370126724243,-0.04,-0.03,0.03,0.05
14.231693983078003,-0.05,-0.04,0.03,0.07
14.239120960235596,-0.05,-0.04,0.03,0.07
14.25030779838562,-0.05,-0.04,0.03,0.07
14.263324975967407,-0.05,-0.04,0.03,0.07
14.268905878067017,-0.05,-0.04,0.03,0.07
14.281122922897339,-0.05,-0.04,0.02,0.06
14.290540933609009,-0.05,-0.03,0.03,0.06
14.300555944442749,-0.06,-0.04,0.03,0.07
14.314821004867554,-0.05,-0.04,0.03,0.07
14.318444967269897,-0.05,-0.03,0.03,0.06
14.328510046005249,-0.05,-0.04,0.04,0.07
14.340461015701294,-0.05,-0.04,0.03,0.07
14.350650072097778,-0.06,-0.04,0.03,0.07
14.362076044082642,-0.05,-0.04,0.03,0.07
14.368291139602661,-0.05,-0.04,0.03,0.07
14.380222082138062,-0.05,-0.03,0.04,0.07
14.390201807022095,-0.06,-0.04,0.04,0.08
14.400575876235962,-0.05,-0.04,0.03,0.07
14.412259817123413,-0.05,-0.03,0.04,0.07
14.418011903762817,-0.05,-0.03,0.03,0.06
14.428044080734253,-0.04,-0.04,0.02,0.06
14.4408860206604,-0.06,-0.03,0.03,0.07
14.44875693321228,-0.06,-0.03,0.03,0.07
14.460326910018921,-0.05,-0.04,0.03,0.07
14.467484951019287,-0.05,-0.03,0.04,0.07
14.477897882461548,-0.05,-0.04,0.03,0.07
14.48948884010315,-0.05,-0.03,0.03,0.06
14.499720811843872,-0.05,-0.04,0.03,0.07
14.512187957763672,-0.05,-0.04,0.03,0.07
14.517395973205566,-0.05,-0.03,0.02,0.06
14.527245998382568,-0.05,-0.03,0.03,0.06
14.53932499885559,-0.05,-0.04,0.03,0.07
14.547015905380249,-0.05,-0.04,0.04,0.07
14.556715965270996,-0.05,-0.04,0.04,0.07
14.567269086837769,-0.04,-0.04,0.03,0.06
14.57886791229248,-0.06,-0.04,0.03,0.07
14.588546991348267,-0.05,-0.04,0.03,0.07
14.598531007766724,-0.06,-0.04,0.03,0.07
14.611958980560303,-0.06,-0.04,0.03,0.07
14.616334915161133,-0.05,-0.04,0.03,0.07
14.626359939575195,-0.04,-0.03,0.03,0.05
14.639032125473022,-0.05,-0.04,0.03,0.07
14.648267030715942,-0.05,-0.03,0.03,0.06
14.657825946807861,-0.05,-0.03,0.03,0.06
14.666141986846924,-0.05,-0.04,0.03,0.07
14.676995038986206,-0.05,-0.04,0.03,0.07
14.68903398513794,-0.05,-0.03,0.02,0.06
14.698343992233276,-0.05,-0.03,0.03,0.06
14.708462953567505,-0.05,-0.03,0.03,0.06
14.715905904769897,-0.05,-0.04,0.03,0.07
14.726153135299683,-0.05,-0.03,0.03,0.06
14.73827600479126,-0.05,-0.04,0.02,0.06
14.747483015060425,-0.05,-0.04,0.03,0.07
14.759505033493042,-0.05,-0.04,0.03,0.07
14.765259027481079,-0.05,-0.04,0.04,0.07
14.775116920471191,-0.05,-0.04,0.03,0.07
14.78705096244812,-0.05,-0.04,0.02,0.06
14.795829057693481,-0.05,-0.04,0.02,0.06
14.806123971939087,-0.04,-0.04,0.04,0.06
14.815343141555786,-0.05,-0.04,0.03,0.07
14.825517892837524,-0.05,-0.03,0.04,0.07
14.836549043655396,-0.05,-0.03,0.04,0.07
14.846725940704346,-0.05,-0.04,0.04,0.07
14.86139702796936,-0.05,-0.03,0.04,0.07
14.864748001098633,-0.05,-0.04,0.02,0.06
14.875298023223877,-0.06,-0.04,0.04,0.08
14.88733696937561,-0.05,-0.04,0.04,0.07
14.89686894416809,-0.06,-0.03,0.03,0.07
14.907535791397095,-0.05,-0.03,0.03,0.06
14.914531946182251,-0.05,-0.04,0.03,0.07
14.92463493347168,-0.05,-0.04,0.03,0.07
14.93644404411316,-0.06,-0.04,0.03,0.07
14.946794986724854,-0.05,-0.03,0.04,0.07
14.959254026412964,-0.05,-0.04,0.02,0.06
14.964214086532593,-0.05,-0.03,0.03,0.06
14.977146863937378,-0.04,-0.03,0.04,0.06
14.986145973205566,-0.05,-0.03,0.03,0.06
14.996171951293945,-0.05,-0.04,0.03,0.07
15.008207082748413,-0.05,-0.04,0.03,0.07
15.013967990875244,-0.05,-0.04,0.04,0.07
15.023914098739624,-0.06,-0.04,0.04,0.08
15.036328077316284,-0.05,-0.03,0.04,0.07
15.043946027755737,-0.05,-0.04,0.03,0.07
15.053481817245483,-0.05,-0.03,0.03,0.06
15.06374192237854,-0.06,-0.04,0.03,0.07
15.073956966400146,-0.05,-0.03,0.03,0.06
15.085766077041626,-0.05,-0.04,0.03,0.07
15.095731019973755,-0.05,-0.03,0.04,0.07
15.107167959213257,-0.05,-0.04,0.03,0.07
15.113197088241577,-0.06,-0.04,0.03,0.07
15.123219966888428,-0.05,-0.04,0.03,0.07
15.134668111801147,-0.05,-0.04,0.03,0.07
15.145417928695679,-0.06,-0.03,0.03,0.07
15.157417058944702,-0.05,-0.03,0.03,0.06
15.163057088851929,-0.05,-0.04,0.04,0.07
15.17281985282898,-0.05,-0.04,0.04,0.07
15.185325860977173,-0.05,-0.02,0.03,0.06
15.194369077682495,-0.05,-0.03,0.03,0.06
15.205189943313599,-0.04,-0.04,0.03,0.06
15.21256399154663,-0.05,-0.04,0.03,0.07
15.223050832748413,-0.06,-0.03,0.04,0.07
15.235281944274902,-0.05,-0.03,0.03,0.06
15.2443687915802,-0.05,-0.04,0.03,0.07
15.256911993026733,-0.06,-0.04,0.03,0.07
15.262143850326538,-0.06,-0.03,0.03,0.07
15.271963834762573,-0.06,-0.03,0.03,0.07
15.2844820022583,-0.05,-0.04,0.03,0.07
15.291718006134033,-0.05,-0.04,0.03,0.07
15.301980018615723,-0.05,-0.03,0.03,0.06
15.31229281425476,-0.05,-0.03,0.04,0.07
15.324413061141968,-0.06,-0.04,0.04,0.08
15.334275007247925,-0.05,-0.03,0.03,0.06
15.34346604347229,-0.05,-0.04,0.03,0.07
15.3561270236969,-0.05,-0.03,0.03,0.06
15.361311912536621,-0.05,-0.04,0.03,0.07
15.371577978134155,-0.06,-0.03,0.03,0.07
15.382614850997925,-0.06,-0.03,0.03,0.07
15.393212080001831,-0.05,-0.03,0.03,0.06
15.40693998336792,-0.05,-0.03,0.04,0.07
15.41094708442688,-0.05,-0.04,0.03,0.07
15.421092987060547,-0.06,-0.04,0.03,0.07
15.43356990814209,-0.06,-0.03,0.02,0.06
15.442664861679077,-0.05,-0.03,0.03,0.06
15.455606937408447,-0.05,-0.04,0.03,0.07
15.460566997528076,-0.05,-0.04,0.02,0.06
15.470924139022827,-0.06,-0.03,0.02,0.06
15.483358144760132,-0.05,-0.04,0.04,0.07
15.492305040359497,-0.05,-0.04,0.03,0.07
15.50265097618103,-0.05,-0.04,0.03,0.07
15.510164022445679,-0.05,-0.04,0.03,0.07
15.522385835647583,-0.05,-0.03,0.04,0.07
15.531956911087036,-0.05,-0.03,0.03,0.06
15.542078018188477,-0.05,-0.03,0.04,0.07
15.553277015686035,-0.05,-0.04,0.04,0.07
15.560048818588257,-0.05,-0.03,0.04,0.07
15.570159912109375,-0.05,-0.03,0.03,0.06
15.582473993301392,-0.05,-0.04,0.04,0.07
15.59160590171814,-0.05,-0.04,0.03,0.07
15.603957891464233,-0.06,-0.03,0.02,0.06
15.609798908233643,-0.05,-0.04,0.03,0.07
15.619460821151733,-0.05,-0.04,0.04,0.07
15.631326913833618,-0.05,-0.04,0.03,0.07
15.64132285118103,-0.05,-0.04,0.04,0.07
15.654142141342163,-0.06,-0.03,0.03,0.07
15.659345865249634,-0.06,-0.04,0.03,0.07
15.669173002243042,-0.06,-0.03,0.03,0.07
15.681280851364136,-0.05,-0.03,0.03,0.06
15.689101934432983,-0.05,-0.03,0.03,0.06
15.698765993118286,-0.05,-0.03,0.03,0.06
15.709414005279541,-0.05,-0.03,0.04,0.07
15.720309972763062,-0.05,-0.03,0.04,0.07
15.731158971786499,-0.05,-0.03,0.03,0.06
15.740293025970459,-0.05,-0.03,0.03,0.06
15.751620054244995,-0.04,-0.03,0.03,0.05
15.758849859237671,-0.04,-0.04,0.04,0.06
15.768934965133667,-0.05,-0.04,0.04,0.07
15.780620813369751,-0.05,-0.03,0.04,0.07
15.790542840957642,-0.06,-0.03,0.04,0.07
15.802100896835327,-0.05,-0.03,0.03,0.06
15.808377981185913,-0.05,-0.04,0.03,0.07
15.818313837051392,-0.05,-0.04,0.04,0.07
15.830858945846558,-0.04,-0.03,0.04,0.06
15.838410139083862,-0.05,-0.03,0.03,0.06
15.848161935806274,-0.06,-0.03,0.03,0.07
15.858428001403809,-0.05,-0.04,0.03,0.07
15.86921501159668,-0.05,-0.04,0.03,0.07
15.880440950393677,-0.05,-0.03,0.03,0.06
15.889248132705688,-0.05,-0.03,0.03,0.06
15.904815912246704,-0.05,-0.03,0.03,0.06
15.907469034194946,-0.05,-0.03,0.03,0.06
15.920191049575806,-0.05,-0.04,0.04,0.07
15.927776098251343,-0.06,-0.04,0.04,0.08
15.939295053482056,-0.06,-0.04,0.04,0.08
15.95097279548645,-0.05,-0.04,0.04,0.07
15.957627058029175,-0.06,-0.04,0.02,0.07
15.969743013381958,-0.05,-0.04,0.02,0.06
15.979553937911987,-0.05,-0.03,0.03,0.06
15.988593816757202,-0.05,-0.03,0.03,0.06
15.999622106552124,-0.05,-0.03,0.02,0.06
16.006884813308716,-0.05,-0.03,0.03,0.06
16.0185489654541,-0.05,-0.03,0.03,0.06
16.02854609489441,-0.05,-0.03,0.03,0.06
16.039045095443726,-0.05,-0.02,0.03,0.06
16.051934957504272,-0.05,-0.04,0.02,0.06
16.056777954101562,-0.05,-0.04,0.03,0.07
16.067008018493652,-0.06,-0.03,0.03,0.07
16.07933497428894,-0.06,-0.02,0.03,0.06
16.089260816574097,-0.05,-0.03,0.04,0.07
16.101648092269897,-0.05,-0.04,0.04,0.07
16.106339931488037,-0.05,-0.04,0.04,0.07
16.11664605140686,-0.05,-0.03,0.04,0.07
16.128863096237183,-0.05,-0.04,0.04,0.07
16.138099908828735,-0.05,-0.03,0.04,0.07
16.151868104934692,-0.05,-0.04,0.03,0.07
16.155911922454834,-0.05,-0.03,0.03,0.06
16.17235779762268,-0.05,-0.03,0.03,0.06
16.1783549785614,-0.04,-0.04,0.03,0.06
16.18767809867859,-0.04,-0.03,0.04,0.06
16.196411848068237,-0.06,-0.03,0.03,0.07
16.205821990966797,-0.05,-0.04,0.03,0.07
16.216031789779663,-0.05,-0.03,0.03,0.06
16.2270770072937,-0.05,-0.03,0.03,0.06
16.237295866012573,-0.05,-0.03,0.02,0.06
16.250717878341675,-0.05,-0.03,0.03,0.06
16.25555109977722,-0.04,-0.04,0.03,0.06
16.265639066696167,-0.06,-0.04,0.03,0.07
16.277594804763794,-0.06,-0.03,0.03,0.07
16.287319898605347,-0.05,-0.03,0.03,0.06
16.300014972686768,-0.05,-0.03,0.04,0.07
16.305107831954956,-0.05,-0.03,0.03,0.06
16.315314054489136,-0.05,-0.03,0.04,0.07
16.327641010284424,-0.04,-0.03,0.02,0.05
16.3367178440094,-0.04,-0.04,0.03,0.06
16.347333908081055,-0.06,-0.04,0.03,0.07
16.354658842086792,-0.05,-0.04,0.03,0.07
16.364991903305054,-0.05,-0.03,0.03,0.06
16.37695002555847,-0.05,-0.03,0.02,0.06
16.386794805526733,-0.06,-0.04,0.03,0.07
16.397618055343628,-0.05,-0.03,0.03,0.06
16.404421091079712,-0.05,-0.04,0.02,0.06
16.41475200653076,-0.05,-0.03,0.03,0.06
16.42558979988098,-0.05,-0.03,0.03,0.06
16.436394929885864,-0.06,-0.03,0.03,0.07
16.449253797531128,-0.06,-0.04,0.03,0.07
16.454200983047485,-0.05,-0.02,0.03,0.06
16.464141130447388,-0.05,-0.03,0.03,0.06
16.47485899925232,-0.05,-0.03,0.03,0.06
16.4870388507843,-0.05,-0.04,0.04,0.07
16.499738931655884,-0.05,-0.04,0.03,0.07
16.50384211540222,-0.05,-0.03,0.02,0.06
16.51352596282959,-0.05,-0.03,0.02,0.06
16.52647614479065,-0.04,-0.04,0.04,0.06
16.536376953125,-0.05,-0.03,0.03,0.06
16.548484086990356,-0.06,-0.03,0.03,0.07
16.55359387397766,-0.05,-0.04,0.03,0.07
16.56341791152954,-0.04,-0.04,0.03,0.06
16.575065851211548,-0.05,-0.04,0.03,0.07
16.583289861679077,-0.05,-0.03,0.02,0.06
16.59318494796753,-0.05,-0.02,0.03,0.06
16.603137969970703,-0.05,-0.04,0.02,0.06
16.613250970840454,-0.05,-0.03,0.02,0.06
16.625168085098267,-0.05,-0.03,0.03,0.06
16.634246110916138,-0.05,-0.03,0.03,0.06
16.645158052444458,-0.05,-0.03,0.02,0.06
16.652857065200806,-0.05,-0.04,0.04,0.07
16.663065910339355,-0.06,-0.04,0.03,0.07
16.674861907958984,-0.05,-0.04,0.03,0.07
16.68421483039856,-0.05,-0.04,0.03,0.07
16.695409059524536,-0.05,-0.04,0.03,0.07
16.702661991119385,-0.04,-0.03,0.03,0.05
16.712840795516968,-0.05,-0.02,0.02,0.05
16.72440791130066,-0.06,-0.02,0.02,0.06
16.73561692237854,-0.06,-0.03,0.03,0.07
16.7469379901886,-0.04,-0.03,0.03,0.05
16.751985788345337,-0.05,-0.03,0.03,0.06
16.76214289665222,-0.06,-0.03,0.03,0.07
16.77388596534729,-0.06,-0.03,0.02,0.06
16.78185200691223,-0.06,-0.03,0.03,0.07
16.79164695739746,-0.05,-0.03,0.03,0.06
16.802870988845825,-0.05,-0.03,0.03,0.06
16.81311583518982,-0.05,-0.03,0.03,0.06
16.823723077774048,-0.05,-0.02,0.03,0.06
16.834765911102295,-0.05,-0.03,0.02,0.06
16.850860834121704,-0.05,-0.03,0.03,0.06
16.851737022399902,-0.05,-0.03,0.04,0.07
16.86127495765686,-0.05,-0.03,0.03,0.06
16.8713481426239,-0.05,-0.03,0.03,0.06
16.88374900817871,-0.05,-0.03,0.02,0.06
16.895524978637695,-0.05,-0.04,0.03,0.07
16.900931119918823,-0.05,-0.03,0.03,0.06
16.910924911499023,-0.05,-0.03,0.03,0.06
16.92334794998169,-0.06,-0.03,0.02,0.06
16.93344283103943,-0.06,-0.03,0.03,0.07
16.945842027664185,-0.05,-0.03,0.04,0.07
16.95057702064514,-0.05,-0.03,0.03,0.06
16.960498094558716,-0.05,-0.03,0.03,0.06
16.972893953323364,-0.06,-0.03,0.03,0.07
16.98289704322815,-0.06,-0.04,0.02,0.07
16.995985984802246,-0.05,-0.03,0.03,0.06
17.000367879867554,-0.05,-0.03,0.02,0.06
17.010332822799683,-0.05,-0.02,0.02,0.05
17.020335912704468,-0.05,-0.02,0.02,0.05
17.033478021621704,-0.06,-0.03,0.03,0.07
17.047147035598755,-0.05,-0.04,0.03,0.07
17.049683809280396,-0.06,-0.04,0.03,0.07
17.060220956802368,-0.05,-0.03,0.03,0.06
17.07231593132019,-0.05,-0.03,0.03,0.06
17.08206796646118,-0.06,-0.03,0.02,0.06
17.093892812728882,-0.05,-0.03,0.03,0.06
17.099461793899536,-0.05,-0.03,0.03,0.06
17.10973596572876,-0.05,-0.03,0.03,0.06
17.120578050613403,-0.05,-0.03,0.03,0.06
17.130542993545532,-0.05,-0.03,0.03,0.06
17.144255876541138,-0.05,-0.04,0.03,0.07
17.149047136306763,-0.05,-0.03,0.03,0.06
17.159340143203735,-0.05,-0.03,0.03,0.06
17.171816110610962,-0.05,-0.04,0.03,0.07
17.183311939239502,-0.06,-0.03,0.04,0.07
17.196165800094604,-0.06,-0.03,0.04,0.07
17.1991069316864,-0.05,-0.03,0.03,0.06
17.20897889137268,-0.05,-0.04,0.04,0.07
17.222295999526978,-0.06,-0.03,0.04,0.07
17.2307550907135,-0.05,-0.03,0.04,0.07
17.244436025619507,-0.05,-0.03,0.03,0.06
17.248564958572388,-0.05,-0.03,0.04,0.07
17.25845503807068,-0.05,-0.03,0.03,0.06
17.2686870098114,-0.05,-0.03,0.02,0.06
17.280743837356567,-0.05,-0.03,0.04,0.07
17.294620990753174,-0.05,-0.03,0.03,0.06
17.297842979431152,-0.05,-0.03,0.03,0.06
17.30794882774353,-0.05,-0.03,0.03,0.06
17.31914496421814,-0.05,-0.03,0.03,0.06
17.32991600036621,-0.05,-0.02,0.03,0.06
17.343483924865723,-0.06,-0.03,0.03,0.07
17.347633123397827,-0.05,-0.03,0.03,0.06
17.35823893547058,-0.05,-0.03,0.04,0.07
17.369892835617065,-0.04,-0.03,0.04,0.06
17.37951111793518,-0.04,-0.04,0.03,0.06
17.391405820846558,-0.05,-0.03,0.03,0.06
17.397368907928467,-0.05,-0.03,0.02,0.06
17.407796144485474,-0.05,-0.04,0.03,0.07
17.420170068740845,-0.06,-0.04,0.03,0.07
17.429898023605347,-0.05,-0.04,0.03,0.07
17.441818952560425,-0.05,-0.03,0.03,0.06
17.446775913238525,-0.05,-0.03,0.03,0.06
17.456798791885376,-0.05,-0.03,0.03,0.06
17.469258069992065,-0.06,-0.04,0.03,0.07
17.478981971740723,-0.06,-0.03,0.04,0.07
17.492228984832764,-0.05,-0.03,0.04,0.07
17.49673295021057,-0.05,-0.03,0.04,0.07
17.506808042526245,-0.05,-0.04,0.03,0.07
17.518523931503296,-0.06,-0.04,0.03,0.07
17.528669118881226,-0.04,-0.04,0.03,0.06
17.542439937591553,-0.04,-0.03,0.02,0.05
17.546501874923706,-0.05,-0.03,0.02,0.06
17.55642294883728,-0.05,-0.03,0.03,0.06
17.568447828292847,-0.06,-0.03,0.03,0.07
17.578207969665527,-0.05,-0.03,0.04,0.07
17.589513063430786,-0.05,-0.03,0.03,0.06
17.59597897529602,-0.05,-0.03,0.03,0.06
17.60641098022461,-0.06,-0.03,0.03,0.07
17.618468046188354,-0.05,-0.03,0.03,0.06
17.627000093460083,-0.05,-0.03,0.03,0.06
17.637760877609253,-0.05,-0.03,0.04,0.07
17.64551281929016,-0.05,-0.03,0.02,0.06
17.656171083450317,-0.05,-0.04,0.03,0.07
17.668102025985718,-0.05,-0.03,0.03,0.06
17.677701950073242,-0.05,-0.04,0.03,0.07
17.690151929855347,-0.05,-0.03,0.03,0.06
17.695310831069946,-0.05,-0.03,0.03,0.06
17.705429792404175,-0.05,-0.03,0.03,0.06
17.716859102249146,-0.05,-0.03,0.03,0.06
17.727471113204956,-0.05,-0.04,0.03,0.07
17.744063138961792,-0.05,-0.03,0.03,0.06
17.745073080062866,-0.05,-0.03,0.03,0.06
17.755170106887817,-0.05,-0.03,0.03,0.06
17.766788959503174,-0.05,-0.03,0.03,0.06
17.777190923690796,-0.05,-0.04,0.03,0.07
17.792938947677612,-0.05,-0.03,0.03,0.06
17.79459309577942,-0.05,-0.03,0.02,0.06
17.804919004440308,-0.05,-0.04,0.04,0.07
17.815040826797485,-0.05,-0.03,0.03,0.06
17.826934099197388,-0.05,-0.03,0.02,0.06
17.837444067001343,-0.06,-0.03,0.03,0.07
17.844409942626953,-0.05,-0.04,0.03,0.07
17.854919910430908,-0.05,-0.03,0.03,0.06
17.86701989173889,-0.05,-0.04,0.03,0.07
17.876210927963257,-0.05,-0.03,0.03,0.06
17.88964009284973,-0.06,-0.03,0.03,0.07
17.894180059432983,-0.05,-0.03,0.03,0.06
17.90469002723694,-0.05,-0.03,0.02,0.06
17.91647696495056,-0.04,-0.03,0.03,0.05
17.925766944885254,-0.05,-0.03,0.03,0.06
17.93753981590271,-0.05,-0.03,0.03,0.06
17.94356393814087,-0.05,-0.03,0.03,0.06
17.954368829727173,-0.06,-0.03,0.02,0.06
17.96611714363098,-0.06,-0.03,0.03,0.07
17.975527048110962,-0.05,-0.03,0.03,0.06
17.989571809768677,-0.05,-0.02,0.04,0.06
17.993412971496582,-0.05,-0.03,0.03,0.06
18.00345492362976,-0.05,-0.03,0.03,0.06
18.014657974243164,-0.05,-0.03,0.03,0.06
18.025606870651245,-0.06,-0.03,0.03,0.07
18.043022871017456,-0.05,-0.03,0.03,0.06
18.04419207572937,-0.05,-0.02,0.03,0.06
18.05297303199768,-0.05,-0.03,0.03,0.06
18.065149068832397,-0.05,-0.04,0.03,0.07
18.0748450756073,-0.05,-0.03,0.03,0.06
18.08634305000305,-0.06,-0.02,0.03,0.06
18.09290385246277,-0.05,-0.03,0.03,0.06
18.10458779335022,-0.04,-0.02,0.03,0.05
18.115094900131226,-0.05,-0.03,0.03,0.06
18.12424111366272,-0.06,-0.03,0.03,0.07
18.133862018585205,-0.05,-0.03,0.02,0.06
18.14247488975525,-0.06,-0.03,0.04,0.07
18.15798306465149,-0.05,-0.02,0.04,0.06
18.16414499282837,-0.05,-0.03,0.03,0.06
18.17436909675598,-0.05,-0.04,0.02,0.06
18.186168909072876,-0.06,-0.03,0.03,0.07
18.192381143569946,-0.05,-0.02,0.03,0.06
18.20519709587097,-0.05,-0.02,0.04,0.06
18.21439290046692,-0.06,-0.03,0.03,0.07
18.223148107528687,-0.06,-0.03,0.03,0.07
18.235254049301147,-0.04,-0.03,0.03,0.05
18.24204993247986,-0.05,-0.02,0.02,0.05
18.25449299812317,-0.06,-0.03,0.02,0.06
18.26369595527649,-0.05,-0.03,0.03,0.06
18.272670030593872,-0.05,-0.03,0.03,0.06
18.283698797225952,-0.05,-0.02,0.03,0.06
18.29153299331665,-0.05,-0.03,0.02,0.06
18.301985025405884,-0.04,-0.02,0.03,0.05
18.313642024993896,-0.04,-0.03,0.03,0.05
18.323187112808228,-0.05,-0.04,0.03,0.07
18.334716081619263,-0.05,-0.03,0.02,0.06
18.341142892837524,-0.05,-0.02,0.02,0.05
18.354748010635376,-0.05,-0.03,0.03,0.06
18.363497972488403,-0.05,-0.02,0.02,0.05
18.373125791549683,-0.05,-0.03,0.03,0.06
18.38517689704895,-0.05,-0.02,0.04,0.06
18.39086413383484,-0.05,-0.03,0.03,0.06
18.405214071273804,-0.05,-0.03,0.03,0.06
18.41271996498108,-0.05,-0.04,0.03,0.07
18.422608137130737,-0.05,-0.02,0.03,0.06
18.436022996902466,-0.05,-0.03,0.04,0.07
18.440557956695557,-0.05,-0.03,0.03,0.06
18.454988956451416,-0.05,-0.03,0.03,0.06
18.461802005767822,-0.05,-0.03,0.03,0.06
18.4725079536438,-0.05,-0.03,0.02,0.06
18.48573398590088,-0.06,-0.03,0.04,0.07
18.49010396003723,-0.05,-0.03,0.04,0.07
18.500108003616333,-0.05,-0.03,0.03,0.06
18.512000799179077,-0.05,-0.03,0.02,0.06
18.522279977798462,-0.05,-0.02,0.03,0.06
18.53325390815735,-0.05,-0.03,0.03,0.06
18.53985905647278,-0.05,-0.03,0.04,0.07
18.549618005752563,-0.05,-0.03,0.03,0.06
18.561742067337036,-0.06,-0.03,0.03,0.07
18.57191491127014,-0.05,-0.03,0.03,0.06
18.589773893356323,-0.05,-0.03,0.02,0.06
18.590529918670654,-0.05,-0.03,0.03,0.06
18.59930109977722,-0.05,-0.03,0.02,0.06
18.609651803970337,-0.05,-0.03,0.03,0.06
18.620947122573853,-0.05,-0.03,0.03,0.06
18.63502597808838,-0.04,-0.03,0.02,0.05
18.639326810836792,-0.05,-0.03,0.03,0.06
18.649321794509888,-0.05,-0.03,0.04,0.07
18.660762071609497,-0.05,-0.03,0.03,0.06
18.670634031295776,-0.05,-0.02,0.03,0.06
18.683904886245728,-0.05,-0.03,0.04,0.07
18.68907594680786,-0.04,-0.03,0.03,0.05
18.698823928833008,-0.05,-0.02,0.03,0.06
18.710819959640503,-0.05,-0.03,0.03,0.06
18.719810962677002,-0.05,-0.03,0.03,0.06
18.73395800590515,-0.05,-0.02,0.04,0.06
18.73819613456726,-0.05,-0.02,0.03,0.06
18.748314142227173,-0.05,-0.03,0.04,0.07
18.760345935821533,-0.05,-0.03,0.03,0.06
18.771044969558716,-0.06,-0.03,0.04,0.07
18.78819489479065,-0.05,-0.02,0.03,0.06
18.789412021636963,-0.05,-0.03,0.03,0.06
18.797805070877075,-0.05,-0.03,0.03,0.06
18.8101589679718,-0.05,-0.03,0.02,0.06
18.81974482536316,-0.05,-0.03,0.03,0.06
18.833199977874756,-0.05,-0.03,0.03,0.06
18.83782982826233,-0.06,-0.02,0.03,0.06
18.8478901386261,-0.05,-0.02,0.02,0.05
18.859839916229248,-0.04,-0.03,0.03,0.05
18.86926007270813,-0.05,-0.03,0.02,0.06
18.880762815475464,-0.05,-0.03,0.03,0.06
18.887494802474976,-0.05,-0.02,0.03,0.06
18.897758960723877,-0.05,-0.03,0.02,0.06
18.908639907836914,-0.05,-0.03,0.02,0.06
18.920074939727783,-0.06,-0.02,0.03,0.06
18.9351007938385,-0.05,-0.03,0.03,0.06
18.93675684928894,-0.05,-0.02,0.03,0.06
18.956784963607788,-0.05,-0.02,0.03,0.06
18.958958864212036,-0.06,-0.03,0.03,0.07
18.968182802200317,-0.06,-0.03,0.03,0.07
18.98117709159851,-0.05,-0.03,0.02,0.06
18.986663103103638,-0.06,-0.02,0.03,0.06
18.9966139793396,-0.04,-0.04,0.03,0.06
19.009172916412354,-0.05,-0.02,0.02,0.05
19.0186288356781,-0.04,-0.03,0.02,0.05
19.030486822128296,-0.05,-0.02,0.03,0.06
19.036345958709717,-0.05,-0.02,0.02,0.05
19.046315908432007,-0.05,-0.03,0.04,0.07
19.056351900100708,-0.05,-0.03,0.04,0.07
19.068671941757202,-0.05,-0.02,0.02,0.05
19.08512806892395,-0.05,-0.02,0.02,0.05
19.08573889732361,-0.05,-0.02,0.03,0.06
19.09569811820984,-0.05,-0.02,0.03,0.06
19.107964992523193,-0.05,-0.02,0.04,0.06
19.118379831314087,-0.06,-0.02,0.03,0.06
19.13256001472473,-0.05,-0.03,0.03,0.06
19.13552689552307,-0.05,-0.03,0.02,0.06
19.14566683769226,-0.05,-0.03,0.03,0.06
19.157325983047485,-0.04,-0.03,0.03,0.05
19.166656017303467,-0.04,-0.03,0.03,0.05
19.17873501777649,-0.05,-0.03,0.02,0.06
19.185513973236084,-0.05,-0.03,0.03,0.06
19.19541597366333,-0.05,-0.02,0.04,0.06
19.20733904838562,-0.06,-0.02,0.04,0.07
19.21823000907898,-0.05,-0.03,0.03,0.06
19.230679988861084,-0.04,-0.03,0.03,0.05
19.23517394065857,-0.05,-0.03,0.04,0.07
19.24503993988037,-0.05,-0.02,0.02,0.05
19.25532603263855,-0.06,-0.03,0.02,0.06
19.267943143844604,-0.05,-0.02,0.03,0.06
19.277992010116577,-0.05,-0.03,0.03,0.06
19.28481101989746,-0.04,-0.03,0.03,0.05
19.29463505744934,-0.05,-0.03,0.03,0.06
19.30695080757141,-0.05,-0.02,0.02,0.05
19.315863847732544,-0.05,-0.02,0.02,0.05
19.3288791179657,-0.06,-0.03,0.02,0.06
19.334380865097046,-0.05,-0.03,0.03,0.06
19.34428095817566,-0.05,-0.03,0.02,0.06
19.35638689994812,-0.05,-0.03,0.03,0.06
19.366037130355835,-0.05,-0.03,0.02,0.06
19.377074003219604,-0.05,-0.03,0.02,0.06
19.384169816970825,-0.05,-0.03,0.03,0.06
19.394108057022095,-0.06,-0.04,0.03,0.07
19.406003952026367,-0.06,-0.03,0.03,0.07
19.416327953338623,-0.05,-0.03,0.03,0.06
19.431019067764282,-0.05,-0.02,0.03,0.06
19.433708906173706,-0.05,-0.04,0.02,0.06
19.443814992904663,-0.04,-0.03,0.03,0.05
19.45611596107483,-0.04,-0.02,0.02,0.04
19.464412927627563,-0.04,-0.02,0.02,0.04
19.478380918502808,-0.06,-0.03,0.02,0.06
19.48313593864441,-0.06,-0.03,0.02,0.06
19.49343705177307,-0.05,-0.03,0.02,0.06
19.505538940429688,-0.04,-0.03,0.02,0.05
19.514941930770874,-0.05,-0.02,0.02,0.05
19.52807092666626,-0.05,-0.01,0.03,0.05
19.532835006713867,-0.05,-0.02,0.03,0.06
19.54279398918152,-0.05,-0.02,0.03,0.06
19.553478956222534,-0.05,-0.03,0.02,0.06
19.5654399394989,-0.05,-0.02,0.03,0.06
19.57712197303772,-0.05,-0.03,0.03,0.06
19.582813024520874,-0.06,-0.03,0.02,0.06
19.592745065689087,-0.05,-0.03,0.03,0.06
19.604926824569702,-0.05,-0.03,0.01,0.05
19.614385843276978,-0.05,-0.03,0.02,0.06
19.627639055252075,-0.05,-0.03,0.02,0.06
19.632148027420044,-0.05,-0.03,0.03,0.06
19.644259929656982,-0.05,-0.03,0.04,0.07
19.65422296524048,-0.05,-0.02,0.03,0.06
19.663832902908325,-0.04,-0.02,0.03,0.05
19.67669701576233,-0.05,-0.03,0.03,0.06
19.682004928588867,-0.05,-0.02,0.02,0.05
19.69207000732422,-0.06,-0.03,0.02,0.06
19.704509973526,-0.05,-0.02,0.03,0.06
19.71362805366516,-0.05,-0.03,0.03,0.06
19.723803997039795,-0.04,-0.03,0.02,0.05
19.731630086898804,-0.05,-0.03,0.02,0.06
19.74283194541931,-0.05,-0.03,0.03,0.06
19.7529718875885,-0.06,-0.02,0.02,0.06
19.763363122940063,-0.05,-0.04,0.02,0.06
19.777714014053345,-0.05,-0.04,0.02,0.06
19.781508922576904,-0.05,-0.03,0.04,0.07
19.791826963424683,-0.04,-0.03,0.03,0.05
19.80425500869751,-0.05,-0.02,0.03,0.06
19.812194108963013,-0.05,-0.02,0.03,0.06
19.82542896270752,-0.05,-0.02,0.03,0.06
19.83134913444519,-0.06,-0.03,0.02,0.06
19.841017961502075,-0.05,-0.02,0.03,0.06
19.852689027786255,-0.05,-0.02,0.03,0.06
19.862849950790405,-0.05,-0.03,0.03,0.06
19.87804102897644,-0.04,-0.03,0.03,0.05
19.88045597076416,-0.05,-0.03,0.02,0.06
19.890724897384644,-0.05,-0.02,0.03,0.06
19.90256905555725,-0.05,-0.03,0.03,0.06
19.913059949874878,-0.05,-0.02,0.02,0.05
19.926254987716675,-0.05,-0.03,0.03,0.06
19.930409908294678,-0.06,-0.02,0.02,0.06
19.94021201133728,-0.05,-0.03,0.03,0.06
19.952049016952515,-0.05,-0.02,0.03,0.06
19.96212410926819,-0.05,-0.02,0.02,0.05
19.97475790977478,-0.05,-0.03,0.01,0.05
19.97991108894348,-0.05,-0.03,0.03,0.06
19.989974975585938,-0.05,-0.03,0.04,0.07
20.000179052352905,-0.05,-0.02,0.03,0.06
20.012253999710083,-0.06,-0.02,0.02,0.06
20.027902841567993,-0.06,-0.02,0.02,0.06
20.029364824295044,-0.05,-0.03,0.03,0.06
20.03958487510681,-0.04,-0.03,0.03,0.05
20.052071809768677,-0.05,-0.02,0.02,0.05
20.06177306175232,-0.06,-0.03,0.03,0.07
20.074501991271973,-0.06,-0.03,0.03,0.07
20.07932686805725,-0.05,-0.03,0.02,0.06
20.089332818984985,-0.04,-0.03,0.02,0.05
20.099368810653687,-0.05,-0.03,0.02,0.06
20.111339807510376,-0.06,-0.03,0.02,0.06
20.124025106430054,-0.05,-0.03,0.03,0.06
20.128785848617554,-0.05,-0.02,0.02,0.05
20.138895988464355,-0.05,-0.02,0.01,0.05
20.149204969406128,-0.05,-0.03,0.02,0.06
20.161651849746704,-0.04,-0.03,0.03,0.05
20.17554783821106,-0.04,-0.03,0.03,0.05
20.17854905128479,-0.05,-0.03,0.03,0.06
20.188715934753418,-0.06,-0.02,0.03,0.06
20.19997811317444,-0.06,-0.02,0.03,0.06
20.21062207221985,-0.06,-0.03,0.02,0.06
20.22318196296692,-0.06,-0.04,0.02,0.07
20.228265047073364,-0.05,-0.02,0.02,0.05
20.23871684074402,-0.05,-0.03,0.02,0.06
20.250643014907837,-0.04,-0.03,0.02,0.05
20.260112047195435,-0.05,-0.02,0.02,0.05
20.2723069190979,-0.06,-0.03,0.02,0.06
20.27790093421936,-0.06,-0.03,0.02,0.06
20.288209915161133,-0.04,-0.03,0.03,0.05
20.298178911209106,-0.04,-0.02,0.02,0.04
20.310590028762817,-0.05,-0.03,0.03,0.06
20.325984001159668,-0.06,-0.03,0.02,0.06
20.327296018600464,-0.05,-0.03,0.02,0.06
20.337852954864502,-0.06,-0.03,0.03,0.07
20.347877979278564,-0.05,-0.02,0.03,0.06
20.359694004058838,-0.05,-0.03,0.03,0.06
20.374151945114136,-0.05,-0.02,0.03,0.06
20.377028942108154,-0.06,-0.02,0.02,0.06
20.387431859970093,-0.05,-0.03,0.03,0.06
20.39842391014099,-0.05,-0.03,0.03,0.06
20.40854001045227,-0.05,-0.03,0.03,0.06
20.424076795578003,-0.05,-0.02,0.03,0.06
20.426761865615845,-0.06,-0.02,0.02,0.06
20.436941862106323,-0.05,-0.02,0.02,0.05
20.448006868362427,-0.05,-0.02,0.02,0.05
20.458951950073242,-0.05,-0.02,0.03,0.06
20.473514795303345,-0.05,-0.02,0.02,0.05
20.476281881332397,-0.05,-0.02,0.03,0.06
20.48821496963501,-0.05,-0.02,0.02,0.05
20.49860405921936,-0.05,-0.02,0.03,0.06
20.508527040481567,-0.06,-0.03,0.03,0.07
20.51974606513977,-0.05,-0.03,0.02,0.06
20.526326894760132,-0.05,-0.02,0.02,0.05
20.537583112716675,-0.05,-0.02,0.01,0.05
20.54812502861023,-0.05,-0.02,0.02,0.05
20.557923078536987,-0.06,-0.02,0.02,0.06
20.570636987686157,-0.05,-0.02,0.02,0.05
20.57574701309204,-0.05,-0.02,0.02,0.05
20.585798025131226,-0.05,-0.03,0.02,0.06
20.595936059951782,-0.05,-0.03,0.03,0.06
20.607250928878784,-0.05,-0.03,0.03,0.06
20.622550010681152,-0.06,-0.03,0.03,0.07
20.625327825546265,-0.05,-0.03,0.03,0.06
20.63565182685852,-0.05,-0.03,0.02,0.06
20.64775013923645,-0.04,-0.02,0.02,0.04
20.65694499015808,-0.04,-0.02,0.03,0.05
20.669749975204468,-0.06,-0.03,0.03,0.07
20.67493510246277,-0.06,-0.03,0.03,0.07
20.685410022735596,-0.06,-0.03,0.02,0.06
20.69654893875122,-0.06,-0.03,0.02,0.06
20.70742106437683,-0.05,-0.03,0.03,0.06
20.722648859024048,-0.05,-0.02,0.03,0.06
20.72476100921631,-0.05,-0.02,0.02,0.05
20.735151052474976,-0.06,-0.03,0.03,0.07
20.744892835617065,-0.05,-0.03,0.02,0.06
20.757444143295288,-0.05,-0.02,0.02,0.05
20.771606922149658,-0.05,-0.02,0.02,0.05
20.77472496032715,-0.04,-0.03,0.03,0.05
20.784555912017822,-0.05,-0.03,0.03,0.06
20.794870138168335,-0.05,-0.04,0.03,0.07
20.806609869003296,-0.05,-0.03,0.03,0.06
20.819659948349,-0.06,-0.02,0.02,0.06
20.823939085006714,-0.04,-0.02,0.02,0.04
20.83417296409607,-0.05,-0.02,0.02,0.05
20.844422101974487,-0.05,-0.03,0.02,0.06
20.856157064437866,-0.05,-0.02,0.03,0.06
20.870389938354492,-0.04,-0.03,0.03,0.05
20.873629808425903,-0.05,-0.03,0.03,0.06
20.883795976638794,-0.05,-0.02,0.03,0.06
20.894787073135376,-0.05,-0.02,0.03,0.06
20.90625309944153,-0.05,-0.03,0.02,0.06
20.91906189918518,-0.06,-0.03,0.02,0.06
20.92370581626892,-0.05,-0.02,0.03,0.06
20.933594942092896,-0.05,-0.03,0.02,0.06
20.944793939590454,-0.05,-0.03,0.02,0.06
20.956018924713135,-0.04,-0.04,0.03,0.06
20.97026801109314,-0.05,-0.03,0.02,0.06
20.972994089126587,-0.06,-0.03,0.03,0.07
20.989056825637817,-0.05,-0.03,0.03,0.06
20.995404958724976,-0.05,-0.02,0.02,0.05
21.004658937454224,-0.05,-0.02,0.01,0.05
21.01771092414856,-0.05,-0.03,0.02,0.06
21.022652864456177,-0.05,-0.03,0.02,0.06
21.03251600265503,-0.05,-0.03,0.02,0.06
21.043084859848022,-0.06,-0.03,0.03,0.07
21.055847883224487,-0.05,-0.02,0.02,0.05
21.067804098129272,-0.05,-0.03,0.02,0.06
21.07252287864685,-0.06,-0.02,0.02,0.06
21.082422018051147,-0.05,-0.03,0.02,0.06
21.09340500831604,-0.05,-0.03,0.02,0.06
21.104557991027832,-0.05,-0.03,0.03,0.06
21.117439031600952,-0.04,-0.03,0.02,0.05
21.121912002563477,-0.05,-0.03,0.02,0.06
21.132102012634277,-0.06,-0.02,0.02,0.06
21.143810987472534,-0.06,-0.02,0.03,0.06
21.154830932617188,-0.05,-0.02,0.02,0.05
21.168493032455444,-0.05,-0.03,0.02,0.06
21.172197103500366,-0.05,-0.03,0.01,0.05
21.18188786506653,-0.05,-0.02,0.02,0.05
21.19227695465088,-0.05,-0.03,0.03,0.06
21.204840898513794,-0.06,-0.02,0.01,0.06
21.217029809951782,-0.05,-0.02,0.03,0.06
21.221513986587524,-0.06,-0.03,0.04,0.07
21.241094827651978,-0.06,-0.01,0.03,0.06
21.2490451335907,-0.05,-0.02,0.03,0.06
21.25119400024414,-0.06,-0.02,0.02,0.06
21.261209964752197,-0.05,-0.02,0.02,0.05
21.271332025527954,-0.05,-0.03,0.02,0.06
21.2809898853302,-0.05,-0.01,0.02,0.05
21.291353940963745,-0.05,-0.02,0.03,0.06
21.30367112159729,-0.05,-0.03,0.03,0.06
21.31589388847351,-0.06,-0.02,0.03,0.06
21.320688009262085,-0.05,-0.03,0.02,0.06
21.337055921554565,-0.05,-0.03,0.03,0.06
21.34247088432312,-0.06,-0.03,0.03,0.07
21.35074210166931,-0.05,-0.03,0.03,0.06
21.362223863601685,-0.05,-0.03,0.02,0.06
21.37011694908142,-0.05,-0.03,0.02,0.06
21.38033699989319,-0.04,-0.03,0.01,0.05
21.39133596420288,-0.05,-0.03,0.02,0.06
21.40093493461609,-0.05,-0.03,0.02,0.06
21.412231922149658,-0.05,-0.03,0.03,0.06
21.42010998725891,-0.04,-0.03,0.03,0.05
21.42978596687317,-0.05,-0.03,0.02,0.06
21.4411039352417,-0.05,-0.02,0.02,0.05
21.451797008514404,-0.04,-0.03,0.02,0.05
21.462169885635376,-0.05,-0.03,0.03,0.06
21.471179962158203,-0.06,-0.03,0.01,0.06
21.481510877609253,-0.05,-0.02,0.01,0.05
21.49119997024536,-0.05,-0.03,0.02,0.06
21.50103998184204,-0.04,-0.03,0.03,0.05
21.51161503791809,-0.05,-0.02,0.03,0.06
21.51895499229431,-0.05,-0.03,0.03,0.06
21.530961990356445,-0.05,-0.03,0.02,0.06
21.540853023529053,-0.06,-0.02,0.02,0.06
21.551281929016113,-0.05,-0.02,0.02,0.05
21.56575083732605,-0.05,-0.02,0.01,0.05
21.56863498687744,-0.05,-0.03,0.01,0.05
21.581043004989624,-0.05,-0.03,0.02,0.06
21.59087109565735,-0.05,-0.02,0.01,0.05
21.600852012634277,-0.05,-0.03,0.01,0.05
21.614283800125122,-0.06,-0.03,0.02,0.06
21.618501901626587,-0.05,-0.03,0.02,0.06
21.628745794296265,-0.05,-0.02,0.02,0.05
21.639315843582153,-0.05,-0.03,0.03,0.06
21.65110492706299,-0.05,-0.03,0.02,0.06
21.66198182106018,-0.05,-0.03,0.02,0.06
21.672364950180054,-0.06,-0.03,0.02,0.06
21.682131052017212,-0.05,-0.03,0.03,0.06
21.69448208808899,-0.05,-0.02,0.02,0.05
21.704190015792847,-0.05,-0.03,0.03,0.06
21.719655990600586,-0.05,-0.03,0.02,0.06
21.721781015396118,-0.06,-0.03,0.02,0.06
21.731725931167603,-0.05,-0.03,0.02,0.06
21.743848085403442,-0.06,-0.03,0.02,0.06
21.75400400161743,-0.05,-0.03,0.01,0.05
21.76655411720276,-0.05,-0.03,0.02,0.06
21.771832942962646,-0.05,-0.02,0.03,0.06
21.781436920166016,-0.05,-0.02,0.01,0.05
21.79374098777771,-0.05,-0.02,0.02,0.05
21.80385708808899,-0.06,-0.03,0.02,0.06
21.819588899612427,-0.05,-0.03,0.02,0.06
21.820825815200806,-0.05,-0.03,0.02,0.06
21.831182956695557,-0.05,-0.03,0.03,0.06
21.84114909172058,-0.05,-0.02,0.02,0.05
21.85335087776184,-0.05,-0.03,0.02,0.06
21.86712098121643,-0.05,-0.02,0.03,0.06
21.870772123336792,-0.05,-0.03,0.02,0.06
21.88926100730896,-0.06,-0.02,0.02,0.06
21.891002893447876,-0.05,-0.03,0.02,0.06
21.906479120254517,-0.05,-0.03,0.01,0.05
21.923406839370728,-0.05,-0.04,0.02,0.06
21.924455881118774,-0.05,-0.03,0.02,0.06
21.9303560256958,-0.05,-0.02,0.03,0.06
21.9405038356781,-0.06,-0.02,0.02,0.06
21.953016996383667,-0.05,-0.02,0.02,0.05
21.965216875076294,-0.05,-0.03,0.03,0.06
21.97062611579895,-0.05,-0.03,0.02,0.06
21.98019289970398,-0.05,-0.03,0.03,0.06
21.990197896957397,-0.05,-0.03,0.02,0.06
22.000015020370483,-0.05,-0.03,0.02,0.06
22.00990605354309,-0.05,-0.03,0.02,0.06
22.019849061965942,-0.05,-0.03,0.02,0.06
22.03125786781311,-0.05,-0.03,0.02,0.06
22.04195809364319,-0.05,-0.02,0.02,0.05
22.05175805091858,-0.05,-0.03,0.01,0.05
22.06788396835327,-0.05,-0.03,0.01,0.05
22.06997799873352,-0.06,-0.02,0.02,0.06
22.079735040664673,-0.05,-0.03,0.03,0.06
22.091667890548706,-0.05,-0.04,0.02,0.06
22.101375818252563,-0.05,-0.03,0.02,0.06
22.116333961486816,-0.05,-0.03,0.01,0.05
22.11898899078369,-0.05,-0.04,0.01,0.06
22.129204034805298,-0.06,-0.02,0.02,0.06
22.138715028762817,-0.06,-0.02,0.02,0.06
22.149539947509766,-0.05,-0.03,0.02,0.06
22.159557104110718,-0.04,-0.03,0.01,0.05
22.16905903816223,-0.04,-0.03,0.01,0.05
22.179149866104126,-0.04,-0.03,0.02,0.05
22.19131112098694,-0.05,-0.03,0.01,0.05
22.20118498802185,-0.06,-0.03,0.01,0.06
22.21774196624756,-0.06,-0.03,0.01,0.06
22.21832299232483,-0.06,-0.03,0.02,0.06
22.22864603996277,-0.06,-0.02,0.01,0.06
22.238624811172485,-0.03,-0.04,0.02,0.05
22.2515549659729,-0.05,-0.04,0.03,0.07
22.265352964401245,-0.06,-0.03,0.03,0.07
22.268213033676147,-0.06,-0.02,0.02,0.06
22.27814793586731,-0.05,-0.02,0.02,0.05
22.28822898864746,-0.05,-0.02,0.02,0.05
22.30034899711609,-0.05,-0.03,0.02,0.06
22.313228845596313,-0.05,-0.02,0.01,0.05
22.317958116531372,-0.05,-0.02,0.02,0.05
22.327775955200195,-0.04,-0.02,0.01,0.04
22.338351011276245,-0.05,-0.03,0.02,0.06
22.349847078323364,-0.05,-0.02,0.02,0.05
22.36156392097473,-0.05,-0.02,0.02,0.05
22.367764949798584,-0.05,-0.03,0.01,0.05
22.377558946609497,-0.05,-0.03,0.02,0.06
22.389783143997192,-0.05,-0.03,0.01,0.05
22.399587869644165,-0.05,-0.02,0.01,0.05
22.413240909576416,-0.05,-0.03,0.02,0.06
22.417006969451904,-0.05,-0.02,0.02,0.05
22.427165985107422,-0.06,-0.02,0.02,0.06
22.437856912612915,-0.05,-0.03,0.01,0.05
22.44854998588562,-0.05,-0.03,0.01,0.05
22.461009979248047,-0.04,-0.03,0.02,0.05
22.467047929763794,-0.05,-0.02,0.01,0.05
22.476974964141846,-0.06,-0.03,0.02,0.06
22.48911213874817,-0.05,-0.03,0.02,0.06
22.49899697303772,-0.05,-0.03,0.01,0.05
22.512563943862915,-0.05,-0.02,0.01,0.05
22.516539812088013,-0.04,-0.03,0.02,0.05
22.526614904403687,-0.05,-0.02,0.01,0.05
22.536927938461304,-0.06,-0.03,0.01,0.06
22.54818606376648,-0.06,-0.03,0.02,0.06
22.559818029403687,-0.06,-0.02,0.01,0.06
22.5662579536438,-0.04,-0.02,0.02,0.04
22.576051950454712,-0.04,-0.02,0.02,0.04
22.588814973831177,-0.05,-0.03,0.01,0.05
22.597039937973022,-0.05,-0.03,0.01,0.05
22.609383821487427,-0.06,-0.03,0.02,0.06
22.615660905838013,-0.06,-0.03,0.02,0.06
22.625786066055298,-0.05,-0.03,0.02,0.06
22.63793110847473,-0.04,-0.03,0.03,0.05
22.647835969924927,-0.05,-0.03,0.02,0.06
22.66133713722229,-0.05,-0.03,0.01,0.05
22.665307998657227,-0.05,-0.03,0.02,0.06
22.67567801475525,-0.05,-0.02,0.02,0.05
22.685872793197632,-0.04,-0.03,0.02,0.05
22.697616815567017,-0.05,-0.03,0.02,0.06
22.7112238407135,-0.05,-0.03,0.02,0.06
22.715301990509033,-0.05,-0.02,0.01,0.05
22.72511601448059,-0.05,-0.03,0.01,0.05
22.737534999847412,-0.05,-0.04,0.02,0.06
22.747208833694458,-0.04,-0.03,0.02,0.05
22.76152491569519,-0.06,-0.03,0.02,0.06
22.764547109603882,-0.06,-0.03,0.01,0.06
22.77497887611389,-0.06,-0.03,0.02,0.06
22.78489899635315,-0.06,-0.03,0.02,0.06
22.797529935836792,-0.05,-0.03,0.01,0.05
22.80978298187256,-0.05,-0.02,0.02,0.05
22.814603090286255,-0.05,-0.03,0.02,0.06
22.824745893478394,-0.05,-0.02,0.01,0.05
22.83724093437195,-0.06,-0.04,0.02,0.07
22.845968008041382,-0.06,-0.03,0.01,0.06
22.860804796218872,-0.05,-0.02,0.02,0.05
22.863983869552612,-0.05,-0.03,0.02,0.06
22.87412190437317,-0.05,-0.02,0.02,0.05
22.88391900062561,-0.05,-0.02,0.02,0.05
22.89652991294861,-0.06,-0.03,0.01,0.06
22.911092042922974,-0.05,-0.03,0.02,0.06
22.913602113723755,-0.04,-0.03,0.02,0.05
22.923900842666626,-0.05,-0.03,0.01,0.05
22.934056997299194,-0.05,-0.03,0.02,0.06
22.94571805000305,-0.06,-0.03,0.0,0.06
22.96029782295227,-0.05,-0.03,0.01,0.05
22.963449954986572,-0.05,-0.02,0.01,0.05
22.97347903251648,-0.06,-0.02,0.02,0.06
22.98548913002014,-0.05,-0.02,0.02,0.05
22.995145082473755,-0.05,-0.03,0.02,0.06
23.01015305519104,-0.05,-0.03,0.02,0.06
23.012902975082397,-0.05,-0.03,0.02,0.06
23.02302384376526,-0.05,-0.03,0.02,0.06
23.03320002555847,-0.05,-0.02,0.02,0.05
23.045156002044678,-0.05,-0.02,0.03,0.06
23.056864023208618,-0.05,-0.02,0.02,0.05
23.062780141830444,-0.05,-0.02,0.01,0.05
23.072707891464233,-0.05,-0.02,0.02,0.05
23.084154844284058,-0.05,-0.02,0.02,0.05
23.094825983047485,-0.05,-0.02,0.01,0.05
23.110315084457397,-0.05,-0.03,0.01,0.05
23.112179040908813,-0.05,-0.02,0.01,0.05
23.122483015060425,-0.04,-0.02,0.01,0.04
23.134511947631836,-0.05,-0.02,0.01,0.05
23.144220113754272,-0.05,-0.03,0.02,0.06
23.15755581855774,-0.05,-0.03,0.03,0.06
23.16220998764038,-0.05,-0.03,0.01,0.05
23.171944856643677,-0.05,-0.03,0.02,0.06
23.182238817214966,-0.05,-0.02,0.02,0.05
23.194512128829956,-0.06,-0.03,0.02,0.06
23.21078085899353,-0.05,-0.03,0.01,0.05
23.21201205253601,-0.05,-0.02,0.01,0.05
23.22188091278076,-0.04,-0.03,0.03,0.05
23.23159384727478,-0.05,-0.03,0.02,0.06
23.242089986801147,-0.06,-0.02,0.01,0.06
23.25334906578064,-0.05,-0.02,0.03,0.06
23.261492013931274,-0.05,-0.03,0.02,0.06
23.27132797241211,-0.05,-0.03,0.01,0.05
23.2837131023407,-0.05,-0.02,0.02,0.05
23.293041944503784,-0.05,-0.02,0.01,0.05
23.307810068130493,-0.05,-0.02,0.02,0.05
23.311129808425903,-0.05,-0.02,0.01,0.05
23.32146906852722,-0.04,-0.03,0.02,0.05
23.333956003189087,-0.05,-0.02,0.01,0.05
23.34254288673401,-0.04,-0.03,0.01,0.05
23.355632066726685,-0.05,-0.03,0.01,0.05
23.360624074935913,-0.05,-0.03,0.01,0.05
23.370677947998047,-0.05,-0.03,0.01,0.05
23.380903005599976,-0.05,-0.03,0.01,0.05
23.392704010009766,-0.05,-0.02,0.01,0.05
23.410696983337402,-0.04,-0.02,0.02,0.04
23.41198706626892,-0.05,-0.02,0.02,0.05
23.420642137527466,-0.06,-0.02,0.01,0.06
23.43070697784424,-0.06,-0.03,0.02,0.06
23.443190813064575,-0.05,-0.02,0.01,0.05
23.454746961593628,-0.04,-0.02,0.03,0.05
23.46025800704956,-0.04,-0.03,0.01,0.05
23.471585035324097,-0.05,-0.02,0.03,0.06
23.48249888420105,-0.05,-0.03,0.02,0.06
23.491556882858276,-0.05,-0.02,0.02,0.05
23.504905939102173,-0.05,-0.02,0.0,0.05
23.509960889816284,-0.05,-0.03,0.02,0.06
23.52008605003357,-0.05,-0.02,0.01,0.05
23.52985692024231,-0.05,-0.02,0.02,0.05
23.54217505455017,-0.05,-0.03,0.01,0.05
23.558069944381714,-0.05,-0.03,0.01,0.05
23.55951714515686,-0.06,-0.03,0.02,0.06
23.569578886032104,-0.05,-0.02,0.01,0.05
23.579373121261597,-0.04,-0.02,0.01,0.04
23.592064142227173,-0.05,-0.03,0.02,0.06
23.607054948806763,-0.05,-0.02,0.01,0.05
23.608911991119385,-0.06,-0.02,0.02,0.06
23.622337102890015,-0.05,-0.03,0.01,0.05
23.629424810409546,-0.04,-0.02,0.01,0.04
23.641291856765747,-0.05,-0.02,0.02,0.05
23.6544668674469,-0.05,-0.02,0.02,0.05
23.658785104751587,-0.05,-0.02,0.01,0.05
23.668800115585327,-0.06,-0.02,0.01,0.06
23.68148899078369,-0.06,-0.03,0.03,0.07
23.69098401069641,-0.05,-0.03,0.02,0.06
23.705312967300415,-0.05,-0.03,0.02,0.06
23.708513975143433,-0.04,-0.02,0.02,0.04
23.718397855758667,-0.05,-0.02,0.01,0.05
23.728734016418457,-0.05,-0.03,0.02,0.06
23.73983883857727,-0.05,-0.03,0.02,0.06
23.753287076950073,-0.05,-0.02,0.03,0.06
23.7580988407135,-0.05,-0.03,0.02,0.06
23.768008947372437,-0.06,-0.03,0.02,0.06
23.77971386909485,-0.06,-0.02,0.01,0.06
23.790226936340332,-0.05,-0.03,0.02,0.06
23.80454182624817,-0.04,-0.03,0.02,0.05
23.807755947113037,-0.05,-0.03,0.02,0.06
23.817605018615723,-0.05,-0.03,0.02,0.06
23.827589988708496,-0.05,-0.03,0.02,0.06
23.839661836624146,-0.05,-0.04,0.02,0.06
23.854435920715332,-0.05,-0.02,0.02,0.05
23.857311010360718,-0.05,-0.02,0.01,0.05
23.867321968078613,-0.05,-0.02,0.02,0.05
23.8784019947052,-0.05,-0.02,0.02,0.05
23.88904309272766,-0.05,-0.02,0.01,0.05
23.902518033981323,-0.05,-0.03,0.02,0.06
23.907130002975464,-0.06,-0.02,0.02,0.06
23.917187929153442,-0.04,-0.02,0.01,0.04
23.927098989486694,-0.06,-0.03,0.02,0.06
23.939017057418823,-0.06,-0.03,0.01,0.06
23.952987909317017,-0.05,-0.03,0.02,0.06
23.95633101463318,-0.05,-0.03,0.02,0.06
23.966627836227417,-0.05,-0.03,0.03,0.06
23.976495027542114,-0.05,-0.02,0.03,0.06
23.989645957946777,-0.04,-0.03,0.02,0.05
24.00147294998169,-0.05,-0.03,0.02,0.06
24.006110906600952,-0.05,-0.03,0.02,0.06
24.016082048416138,-0.05,-0.03,0.02,0.06
24.02756094932556,-0.05,-0.03,0.02,0.06
24.03914499282837,-0.04,-0.03,0.02,0.05
24.0539391040802,-0.05,-0.03,0.02,0.06
24.055668115615845,-0.05,-0.03,0.02,0.06
24.065940141677856,-0.05,-0.02,0.02,0.05
24.07586979866028,-0.06,-0.03,0.02,0.06
24.088279008865356,-0.05,-0.03,0.01,0.05
24.099427938461304,-0.06,-0.03,0.01,0.06
24.105772972106934,-0.05,-0.03,0.03,0.06
24.122373819351196,-0.05,-0.03,0.02,0.06
24.12538981437683,-0.05,-0.03,0.02,0.06
24.138274908065796,-0.05,-0.02,0.02,0.05
24.15294599533081,-0.06,-0.03,0.02,0.06
24.155146837234497,-0.05,-0.02,0.02,0.05
24.16516613960266,-0.05,-0.03,0.01,0.05
24.17544388771057,-0.05,-0.03,0.03,0.06
24.18791890144348,-0.06,-0.02,0.02,0.06
24.20137596130371,-0.06,-0.03,0.02,0.06
24.204976797103882,-0.05,-0.03,0.01,0.05
24.2149019241333,-0.05,-0.03,0.02,0.06
24.225005865097046,-0.05,-0.02,0.02,0.05
24.236474990844727,-0.05,-0.02,0.02,0.05
24.250585794448853,-0.05,-0.03,0.02,0.06
24.2544949054718,-0.05,-0.03,0.01,0.05
24.264496088027954,-0.04,-0.02,0.02,0.04
24.27489399909973,-0.05,-0.03,0.02,0.06
24.286284923553467,-0.05,-0.04,0.02,0.06
24.29955291748047,-0.04,-0.03,0.02,0.05
24.30440878868103,-0.05,-0.03,0.01,0.05
24.314324140548706,-0.05,-0.03,0.02,0.06
24.326194047927856,-0.06,-0.03,0.02,0.06
24.335806131362915,-0.05,-0.03,0.02,0.06
24.349127054214478,-0.05,-0.03,0.02,0.06
24.353819131851196,-0.05,-0.03,0.02,0.06
24.363776922225952,-0.05,-0.02,0.02,0.05
24.37571883201599,-0.05,-0.02,0.01,0.05
24.38628602027893,-0.05,-0.03,0.02,0.06
24.400171041488647,-0.05,-0.03,0.01,0.05
24.403204917907715,-0.05,-0.03,0.01,0.05
24.41344904899597,-0.05,-0.02,0.02,0.05
24.423583984375,-0.05,-0.03,0.0,0.05
24.436025857925415,-0.05,-0.03,0.01,0.05
24.44953989982605,-0.05,-0.03,0.02,0.06
24.452956914901733,-0.05,-0.03,0.02,0.06
24.463034868240356,-0.05,-0.04,0.02,0.06
24.475225925445557,-0.05,-0.03,0.02,0.06
24.485499143600464,-0.05,-0.02,0.02,0.05
24.49929690361023,-0.05,-0.03,0.02,0.06
24.50270104408264,-0.05,-0.03,0.01,0.05
24.512571096420288,-0.05,-0.03,0.01,0.05
24.523011922836304,-0.05,-0.02,0.01,0.05
24.534657955169678,-0.05,-0.02,0.02,0.05
24.54723811149597,-0.05,-0.02,0.02,0.05
24.55276894569397,-0.05,-0.03,0.01,0.05
24.562692880630493,-0.05,-0.02,0.02,0.05
24.574914932250977,-0.05,-0.03,0.01,0.05
24.584425926208496,-0.05,-0.04,0.01,0.06
24.598450899124146,-0.06,-0.03,0.02,0.06
24.602073907852173,-0.05,-0.03,0.02,0.06
24.612305879592896,-0.05,-0.03,0.01,0.05
24.62264895439148,-0.06,-0.02,0.02,0.06
24.635118007659912,-0.05,-0.03,0.03,0.06
24.646718978881836,-0.05,-0.03,0.01,0.05
24.652028799057007,-0.05,-0.03,0.01,0.05
24.66188883781433,-0.04,-0.03,0.02,0.05
24.674143075942993,-0.05,-0.03,0.03,0.06
24.683534860610962,-0.05,-0.03,0.0,0.05
24.69766092300415,-0.05,-0.02,0.02,0.05
24.701364994049072,-0.05,-0.03,0.01,0.05
24.711553812026978,-0.05,-0.02,0.01,0.05
24.72182297706604,-0.05,-0.03,0.02,0.06
24.73450493812561,-0.06,-0.02,0.02,0.06
24.74601101875305,-0.05,-0.02,0.02,0.05
24.75136113166809,-0.04,-0.02,0.02,0.04
24.761207818984985,-0.05,-0.03,0.02,0.06
24.771290063858032,-0.05,-0.03,0.02,0.06
24.78338885307312,-0.06,-0.03,0.02,0.06
24.801331996917725,-0.05,-0.02,0.02,0.05
24.80245804786682,-0.05,-0.03,0.02,0.06
24.810951948165894,-0.05,-0.03,0.01,0.05
24.822691917419434,-0.05,-0.03,0.01,0.05
24.832637071609497,-0.05,-0.03,0.01,0.05
24.844684839248657,-0.05,-0.03,0.02,0.06
24.850512981414795,-0.05,-0.02,0.02,0.05
24.860552072525024,-0.05,-0.02,0.01,0.05
24.873080015182495,-0.04,-0.03,0.02,0.05
24.882848024368286,-0.06,-0.03,0.01,0.06
24.897062063217163,-0.05,-0.02,0.03,0.06
24.90011692047119,-0.05,-0.02,0.01,0.05
24.910205125808716,-0.05,-0.03,0.01,0.05
24.920797109603882,-0.04,-0.02,0.02,0.04
24.933246850967407,-0.05,-0.03,0.03,0.06
24.947662115097046,-0.05,-0.03,0.02,0.06
24.949578046798706,-0.05,-0.03,0.02,0.06
24.9599130153656,-0.05,-0.02,0.02,0.05
24.972104787826538,-0.05,-0.04,0.02,0.06
24.981292009353638,-0.05,-0.03,0.02,0.06
24.993217945098877,-0.05,-0.03,0.02,0.06
24.999719858169556,-0.05,-0.02,0.01,0.05
25.00998592376709,-0.05,-0.03,0.02,0.06
25.02175784111023,-0.05,-0.03,0.03,0.06
25.03127884864807,-0.05,-0.01,0.01,0.05
25.04408597946167,-0.05,-0.03,0.02,0.06
25.049259901046753,-0.05,-0.02,0.01,0.05
25.059044122695923,-0.05,-0.02,0.01,0.05
25.06930899620056,-0.05,-0.02,0.01,0.05
25.081237077713013,-0.05,-0.02,0.02,0.05
25.094024896621704,-0.05,-0.03,0.01,0.05
25.098809003829956,-0.06,-0.02,0.01,0.06
25.108839988708496,-0.05,-0.02,0.01,0.05
25.121086835861206,-0.05,-0.03,0.02,0.06
25.130221128463745,-0.05,-0.03,0.01,0.05
25.14476180076599,-0.05,-0.02,0.01,0.05
25.148514986038208,-0.05,-0.03,0.02,0.06
25.158390998840332,-0.05,-0.02,0.02,0.05
25.168534994125366,-0.05,-0.03,0.01,0.05
25.18041205406189,-0.05,-0.03,0.03,0.06
25.192078828811646,-0.05,-0.02,0.02,0.05
25.1982159614563,-0.06,-0.03,0.02,0.06
25.208199977874756,-0.05,-0.02,0.02,0.05
25.22016406059265,-0.05,-0.03,0.02,0.06
25.229191064834595,-0.05,-0.03,0.02,0.06
25.24220108985901,-0.06,-0.03,0.01,0.06
25.247795820236206,-0.05,-0.03,0.01,0.05
25.257662057876587,-0.05,-0.03,0.02,0.06
25.269290924072266,-0.05,-0.02,0.02,0.05
25.279428005218506,-0.05,-0.02,0.01,0.05
25.293075799942017,-0.05,-0.02,0.02,0.05
25.297451972961426,-0.05,-0.03,0.02,0.06
25.30716896057129,-0.05,-0.03,0.02,0.06
25.31747603416443,-0.06,-0.03,0.01,0.06
25.329231023788452,-0.04,-0.03,0.01,0.05
25.345253944396973,-0.04,-0.02,0.02,0.04
25.346911907196045,-0.04,-0.02,0.01,0.04
25.35695195198059,-0.05,-0.02,0.02,0.05
25.36730694770813,-0.05,-0.03,0.01,0.05
25.379004955291748,-0.05,-0.02,0.01,0.05
25.392524003982544,-0.05,-0.03,0.02,0.06
25.396762132644653,-0.05,-0.03,0.01,0.05
25.40675711631775,-0.05,-0.02,0.02,0.05
25.4165780544281,-0.05,-0.03,0.01,0.05
25.42679190635681,-0.06,-0.02,0.01,0.06
25.437708139419556,-0.05,-0.02,0.02,0.05
25.446254014968872,-0.05,-0.03,0.01,0.05
25.45638680458069,-0.05,-0.02,0.01,0.05
25.469067811965942,-0.06,-0.03,0.01,0.06
25.477946043014526,-0.05,-0.03,0.01,0.05
25.4933660030365,-0.05,-0.03,0.02,0.06
25.496381998062134,-0.05,-0.03,0.01,0.05
25.50585389137268,-0.06,-0.03,0.01,0.06
25.518626928329468,-0.05,-0.02,0.02,0.05
25.526093006134033,-0.05,-0.02,0.01,0.05
25.53789782524109,-0.06,-0.03,0.02,0.06
25.545547008514404,-0.06,-0.03,0.02,0.06
25.55592179298401,-0.06,-0.03,0.01,0.06
25.568296909332275,-0.05,-0.02,0.02,0.05
25.577651023864746,-0.04,-0.02,0.01,0.04
25.59233593940735,-0.05,-0.03,0.02,0.06
25.59520983695984,-0.04,-0.03,0.01,0.05
25.60537886619568,-0.05,-0.03,0.01,0.05
25.615315914154053,-0.05,-0.01,0.01,0.05
25.625633001327515,-0.05,-0.02,0.02,0.05
25.63659691810608,-0.05,-0.03,0.01,0.05
25.64541506767273,-0.06,-0.02,0.02,0.06
25.655272960662842,-0.06,-0.02,0.01,0.06
25.66767382621765,-0.05,-0.02,0.01,0.05
25.676443815231323,-0.05,-0.02,0.02,0.05
25.691044092178345,-0.05,-0.03,0.01,0.05
25.69445300102234,-0.05,-0.02,0.01,0.05
25.7047598361969,-0.05,-0.02,0.02,0.05
25.7151939868927,-0.05,-0.03,0.01,0.05
25.727603912353516,-0.06,-0.04,0.01,0.07
25.739795923233032,-0.05,-0.02,0.02,0.05
25.74441409111023,-0.05,-0.03,0.01,0.05
25.754915952682495,-0.06,-0.01,0.01,0.06
25.764747858047485,-0.05,-0.02,0.01,0.05
25.77615189552307,-0.05,-0.02,0.02,0.05
25.78910493850708,-0.05,-0.02,0.01,0.05
25.794018030166626,-0.05,-0.02,0.02,0.05
25.804402112960815,-0.05,-0.02,0.01,0.05
25.815859079360962,-0.05,-0.03,0.01,0.05
25.825748920440674,-0.05,-0.02,0.01,0.05
25.840075969696045,-0.05,-0.03,0.02,0.06
25.843686819076538,-0.05,-0.03,0.02,0.06
25.85403800010681,-0.05,-0.02,0.01,0.05
25.863887071609497,-0.05,-0.02,0.02,0.05
25.875741958618164,-0.05,-0.03,0.01,0.05
25.891969919204712,-0.05,-0.02,0.01,0.05
25.89301609992981,-0.04,-0.02,0.01,0.04
25.903560876846313,-0.05,-0.02,0.01,0.05
25.91379714012146,-0.05,-0.03,0.02,0.06
25.925577878952026,-0.06,-0.02,0.02,0.06
25.941280126571655,-0.05,-0.02,0.02,0.05
25.94286799430847,-0.06,-0.02,0.02,0.06
25.953296899795532,-0.05,-0.02,0.01,0.05
25.963024854660034,-0.04,-0.02,0.01,0.04
25.975159883499146,-0.05,-0.02,0.02,0.05
25.99067497253418,-0.06,-0.03,0.01,0.06
25.99246597290039,-0.05,-0.03,0.03,0.06
26.005400896072388,-0.04,-0.03,0.02,0.05
26.012603044509888,-0.05,-0.03,0.01,0.05
26.0242919921875,-0.06,-0.03,0.01,0.06
26.036834001541138,-0.05,-0.03,0.02,0.06
26.042473077774048,-0.05,-0.02,0.02,0.05
26.052402019500732,-0.05,-0.02,0.02,0.05
26.06212306022644,-0.05,-0.02,0.02,0.05
26.07416081428528,-0.05,-0.02,0.01,0.05
26.086777925491333,-0.05,-0.02,0.0,0.05
26.091978788375854,-0.05,-0.03,0.01,0.05
26.102041959762573,-0.05,-0.03,0.01,0.05
26.113943815231323,-0.05,-0.03,0.02,0.06
26.122719049453735,-0.05,-0.03,0.02,0.06
26.136637926101685,-0.05,-0.03,0.02,0.06
26.142121076583862,-0.05,-0.02,0.02,0.05
26.151842832565308,-0.05,-0.03,0.01,0.05
26.16203808784485,-0.05,-0.01,0.02,0.05
26.17457604408264,-0.05,-0.02,0.01,0.05
26.189795970916748,-0.05,-0.02,0.01,0.05
26.191378831863403,-0.05,-0.03,0.02,0.06
26.201410055160522,-0.05,-0.02,0.02,0.05
26.211107969284058,-0.05,-0.02,0.02,0.05
26.2234628200531,-0.05,-0.03,0.02,0.06
26.239012956619263,-0.05,-0.02,0.01,0.05
26.240698099136353,-0.05,-0.02,0.01,0.05
26.251266956329346,-0.06,-0.03,0.02,0.06
26.261162996292114,-0.05,-0.01,0.01,0.05
26.271395921707153,-0.05,-0.02,0.02,0.05
26.28335690498352,-0.05,-0.02,0.02,0.05
26.290925979614258,-0.05,-0.03,0.01,0.05
26.300933122634888,-0.05,-0.02,0.02,0.05
26.312740087509155,-0.05,-0.02,0.01,0.05
26.3226900100708,-0.05,-0.03,0.01,0.05
26.336421012878418,-0.05,-0.03,0.01,0.05
26.340619802474976,-0.06,-0.03,0.01,0.06
26.350541830062866,-0.05,-0.02,0.03,0.06
26.362820863723755,-0.05,-0.03,0.01,0.05
26.372030019760132,-0.05,-0.02,0.02,0.05
26.385084867477417,-0.05,-0.02,0.01,0.05
26.390011072158813,-0.05,-0.03,0.02,0.06
26.405595064163208,-0.05,-0.03,0.02,0.06
26.41023087501526,-0.04,-0.03,0.03,0.05
26.422609090805054,-0.06,-0.02,0.02,0.06
26.440472841262817,-0.05,-0.02,0.01,0.05
26.44161295890808,-0.04,-0.02,0.01,0.04
26.45530891418457,-0.05,-0.02,0.01,0.05
26.459528923034668,-0.05,-0.02,0.01,0.05
26.470836877822876,-0.05,-0.02,0.01,0.05
26.4844868183136,-0.05,-0.03,0.01,0.05
26.489218950271606,-0.04,-0.03,0.01,0.05
26.49925398826599,-0.05,-0.03,0.03,0.06
26.511416912078857,-0.05,-0.02,0.02,0.05
26.520766973495483,-0.05,-0.02,0.01,0.05
26.53511095046997,-0.06,-0.03,0.02,0.06
26.538946866989136,-0.05,-0.03,0.02,0.06
26.5489399433136,-0.05,-0.02,0.02,0.05
26.559117078781128,-0.05,-0.02,0.02,0.05
26.571686029434204,-0.05,-0.01,0.03,0.05
26.58618998527527,-0.05,-0.02,0.02,0.05
26.58827495574951,-0.05,-0.02,0.01,0.05
26.598427057266235,-0.04,-0.02,0.01,0.04
26.6088650226593,-0.06,-0.02,0.02,0.06
26.621413946151733,-0.05,-0.02,0.01,0.05
26.635677099227905,-0.05,-0.02,0.02,0.05
26.638219118118286,-0.05,-0.03,0.01,0.05
26.65514898300171,-0.05,-0.02,0.01,0.05
26.65824580192566,-0.05,-0.02,0.0,0.05
26.67109179496765,-0.05,-0.03,0.02,0.06
26.69146180152893,-0.05,-0.02,0.01,0.05
26.692550897598267,-0.05,-0.02,0.02,0.05
26.70518708229065,-0.05,-0.03,0.0,0.05
26.707785844802856,-0.04,-0.03,0.01,0.05
26.722759008407593,-0.05,-0.02,0.01,0.05
26.73465895652771,-0.06,-0.02,0.01,0.06
26.737787008285522,-0.05,-0.02,0.02,0.05
26.75423312187195,-0.05,-0.01,0.02,0.05
26.75765895843506,-0.06,-0.03,0.02,0.06
26.769001960754395,-0.06,-0.03,0.02,0.06
26.783813953399658,-0.06,-0.02,0.02,0.06
26.786957025527954,-0.05,-0.02,0.02,0.05
26.797223806381226,-0.06,-0.01,0.02,0.06
26.80745792388916,-0.05,-0.03,0.02,0.06
26.819749116897583,-0.05,-0.02,0.02,0.05
26.83160400390625,-0.05,-0.02,0.02,0.05
26.837005853652954,-0.05,-0.02,0.01,0.05
26.84676694869995,-0.06,-0.02,0.02,0.06
26.85698914527893,-0.06,-0.02,0.02,0.06
26.868799924850464,-0.05,-0.02,0.02,0.05
26.887598991394043,-0.05,-0.03,0.02,0.06
26.888741970062256,-0.05,-0.03,0.01,0.05
26.905210971832275,-0.06,-0.02,0.02,0.06
26.906648874282837,-0.05,-0.03,0.02,0.06
26.918628931045532,-0.05,-0.03,0.01,0.05
26.93324303627014,-0.04,-0.02,0.01,0.04
26.936343908309937,-0.05,-0.02,0.02,0.05
26.946133852005005,-0.06,-0.02,0.02,0.06
26.956022024154663,-0.05,-0.03,0.02,0.06
26.968297004699707,-0.05,-0.02,0.01,0.05
26.982810020446777,-0.05,-0.02,0.02,0.05
26.985647916793823,-0.05,-0.02,0.02,0.05
26.99579095840454,-0.05,-0.02,0.02,0.05
27.00610899925232,-0.05,-0.02,0.02,0.05
27.018481969833374,-0.05,-0.03,0.01,0.05
27.03551697731018,-0.06,-0.02,0.01,0.06
27.036647081375122,-0.04,-0.02,0.01,0.04
27.04557490348816,-0.05,-0.01,0.02,0.05
27.055632829666138,-0.06,-0.02,0.02,0.06
27.06561303138733,-0.06,-0.03,0.02,0.06
27.078334093093872,-0.05,-0.02,0.03,0.06
27.0853750705719,-0.05,-0.02,0.02,0.05
27.095134019851685,-0.05,-0.03,0.01,0.05
27.10710597038269,-0.04,-0.03,0.01,0.05
27.11761999130249,-0.05,-0.02,0.02,0.05
27.132267951965332,-0.06,-0.02,0.02,0.06
27.135047912597656,-0.05,-0.03,0.01,0.05
27.154855966567993,-0.05,-0.03,0.02,0.06
27.156243085861206,-0.05,-0.02,0.02,0.05
27.17219090461731,-0.04,-0.02,0.03,0.05
27.185909032821655,-0.05,-0.02,0.02,0.05
27.186920881271362,-0.05,-0.03,0.01,0.05
27.194418907165527,-0.06,-0.03,0.01,0.06
27.204466104507446,-0.05,-0.03,0.02,0.06
27.21480107307434,-0.05,-0.02,0.01,0.05
27.22634482383728,-0.05,-0.02,0.02,0.05
27.23444390296936,-0.05,-0.02,0.01,0.05
27.24412703514099,-0.05,-0.02,0.01,0.05
27.25693106651306,-0.06,-0.02,0.02,0.06
27.26610779762268,-0.05,-0.02,0.02,0.05
27.279181003570557,-0.05,-0.02,0.02,0.05
27.283859968185425,-0.05,-0.02,0.02,0.05
27.293638944625854,-0.05,-0.02,0.02,0.05
27.304077863693237,-0.06,-0.03,0.02,0.06
27.3163959980011,-0.05,-0.02,0.02,0.05
27.328630924224854,-0.05,-0.02,0.02,0.05
27.333522081375122,-0.05,-0.02,0.02,0.05
27.343490839004517,-0.05,-0.02,0.01,0.05
27.35488200187683,-0.05,-0.02,0.01,0.05
27.36506485939026,-0.05,-0.02,0.02,0.05
27.379135847091675,-0.05,-0.02,0.02,0.05
27.38307213783264,-0.05,-0.02,0.02,0.05
27.39359402656555,-0.06,-0.02,0.01,0.06
27.405412912368774,-0.05,-0.02,0.03,0.06
27.415759801864624,-0.04,-0.02,0.02,0.04
27.432096004486084,-0.06,-0.02,0.02,0.06
27.433282136917114,-0.06,-0.02,0.02,0.06
27.442671060562134,-0.05,-0.02,0.02,0.05
27.454814910888672,-0.05,-0.02,0.03,0.06
27.465248823165894,-0.05,-0.02,0.02,0.05
27.479225873947144,-0.05,-0.03,0.03,0.06
27.482170820236206,-0.05,-0.03,0.02,0.06
27.492439031600952,-0.05,-0.02,0.02,0.05
27.502254009246826,-0.05,-0.02,0.02,0.05
27.51483392715454,-0.06,-0.03,0.01,0.06
27.52736783027649,-0.06,-0.02,0.01,0.06
27.532366037368774,-0.05,-0.01,0.02,0.05
27.542118787765503,-0.05,-0.02,0.01,0.05
27.5523099899292,-0.05,-0.03,0.02,0.06
27.56401300430298,-0.05,-0.02,0.02,0.05
27.577672958374023,-0.05,-0.02,0.02,0.05
27.581609964370728,-0.05,-0.03,0.01,0.05
27.59180998802185,-0.06,-0.02,0.01,0.06
27.60171389579773,-0.05,-0.02,0.03,0.06
27.61387801170349,-0.05,-0.02,0.01,0.05
27.62657380104065,-0.05,-0.03,0.02,0.06
27.631683111190796,-0.06,-0.03,0.01,0.06
27.64139485359192,-0.05,-0.02,0.01,0.05
27.651762008666992,-0.05,-0.02,0.02,0.05
27.663482904434204,-0.06,-0.02,0.02,0.06
27.677031993865967,-0.05,-0.02,0.02,0.05
27.680920839309692,-0.05,-0.02,0.02,0.05
27.691098928451538,-0.05,-0.02,0.01,0.05
27.70343804359436,-0.05,-0.03,0.02,0.06
27.71258807182312,-0.06,-0.01,0.02,0.06
27.727020978927612,-0.05,-0.02,0.02,0.05
27.730865955352783,-0.05,-0.02,0.02,0.05
27.740976095199585,-0.05,-0.02,0.02,0.05
27.750679969787598,-0.05,-0.02,0.02,0.05
27.762913942337036,-0.05,-0.03,0.02,0.06
27.780200004577637,-0.05,-0.02,0.02,0.05
27.781261920928955,-0.05,-0.03,0.02,0.06
27.790547132492065,-0.06,-0.02,0.02,0.06
27.800354957580566,-0.06,-0.02,0.02,0.06
27.81070590019226,-0.05,-0.02,0.01,0.05
27.822460889816284,-0.05,-0.02,0.01,0.05
27.830009937286377,-0.05,-0.03,0.01,0.05
27.84069514274597,-0.06,-0.02,0.02,0.06
27.852224111557007,-0.05,-0.02,0.02,0.05
27.86192798614502,-0.04,-0.02,0.02,0.04
27.877375841140747,-0.05,-0.03,0.02,0.06
27.87961983680725,-0.06,-0.02,0.02,0.06
27.889572858810425,-0.05,-0.02,0.02,0.05
27.89950680732727,-0.05,-0.02,0.02,0.05
27.911679983139038,-0.05,-0.02,0.01,0.05
27.924722909927368,-0.05,-0.02,0.02,0.05
27.929301977157593,-0.05,-0.02,0.01,0.05
27.939522981643677,-0.04,-0.02,0.02,0.04
27.949378967285156,-0.05,-0.03,0.01,0.05
27.96161913871765,-0.06,-0.02,0.01,0.06
27.97651982307434,-0.05,-0.02,0.02,0.05
27.978816986083984,-0.05,-0.03,0.01,0.05
27.989156007766724,-0.05,-0.02,0.01,0.05
27.99912190437317,-0.05,-0.02,0.02,0.05
28.01100182533264,-0.05,-0.02,0.01,0.05
28.025931119918823,-0.04,-0.03,0.02,0.05
28.028589963912964,-0.04,-0.02,0.01,0.04
28.038638830184937,-0.06,-0.02,0.01,0.06
28.048508882522583,-0.05,-0.02,0.01,0.05
28.060987949371338,-0.06,-0.02,0.02,0.06
28.077899932861328,-0.05,-0.02,0.02,0.05
28.078969955444336,-0.05,-0.02,0.02,0.05
28.088449001312256,-0.05,-0.02,0.01,0.05
28.098203897476196,-0.06,-0.02,0.01,0.06
28.110564947128296,-0.05,-0.02,0.02,0.05
28.12446904182434,-0.05,-0.02,0.03,0.06
28.127936124801636,-0.05,-0.01,0.01,0.05
28.138162851333618,-0.04,-0.02,0.02,0.04
28.14802384376526,-0.05,-0.02,0.02,0.05
28.15996479988098,-0.05,-0.02,0.01,0.05
28.174116849899292,-0.05,-0.01,0.01,0.05
28.177725076675415,-0.05,-0.02,0.02,0.05
28.18767285346985,-0.05,-0.02,0.02,0.05
28.197570085525513,-0.06,-0.02,0.02,0.06
28.20978808403015,-0.07,-0.02,0.02,0.07
28.226064920425415,-0.05,-0.02,0.02,0.05
28.227401971817017,-0.05,-0.03,0.01,0.05
28.237486124038696,-0.05,-0.02,0.01,0.05
28.24766182899475,-0.05,-0.02,0.03,0.06
28.25951313972473,-0.06,-0.02,0.02,0.06
28.27404808998108,-0.05,-0.02,0.01,0.05
28.276950120925903,-0.05,-0.02,0.02,0.05
28.287637948989868,-0.05,-0.02,0.01,0.05
28.296989917755127,-0.05,-0.02,0.01,0.05
28.309076070785522,-0.05,-0.01,0.01,0.05
28.32348608970642,-0.04,-0.02,0.01,0.04
28.326578855514526,-0.05,-0.02,0.02,0.05
28.336833000183105,-0.06,-0.02,0.02,0.06
28.346619844436646,-0.05,-0.02,0.01,0.05
28.356963872909546,-0.05,-0.03,0.02,0.06
28.369860887527466,-0.05,-0.02,0.02,0.05
28.376260995864868,-0.06,-0.02,0.01,0.06
28.388616800308228,-0.05,-0.01,0.02,0.05
28.398998022079468,-0.04,-0.03,0.03,0.05
28.40840196609497,-0.06,-0.02,0.02,0.06
28.421929121017456,-0.06,-0.02,0.02,0.06
28.426284074783325,-0.05,-0.03,0.02,0.06
28.436282873153687,-0.05,-0.02,0.01,0.05
28.44714903831482,-0.05,-0.02,0.01,0.05
28.457998991012573,-0.04,-0.02,0.01,0.04
28.4723699092865,-0.06,-0.03,0.01,0.06
28.47558283805847,-0.05,-0.02,0.02,0.05
28.48826289176941,-0.05,-0.01,0.02,0.05
28.49562382698059,-0.05,-0.01,0.01,0.05
28.505517959594727,-0.05,-0.02,0.01,0.05
28.517426013946533,-0.05,-0.03,0.02,0.06
28.525677919387817,-0.04,-0.02,0.02,0.04
28.535537004470825,-0.05,-0.02,0.01,0.05
28.548197031021118,-0.06,-0.02,0.02,0.06
28.557148933410645,-0.05,-0.02,0.02,0.05
28.57171893119812,-0.05,-0.02,0.02,0.05
28.575223922729492,-0.05,-0.02,0.01,0.05
28.585193872451782,-0.04,-0.02,0.02,0.04
28.596853971481323,-0.05,-0.02,0.02,0.05
28.60493302345276,-0.05,-0.02,0.01,0.05
28.61739706993103,-0.05,-0.03,0.03,0.06
28.62494206428528,-0.04,-0.02,0.02,0.04
28.634827852249146,-0.05,-0.01,0.01,0.05
28.64616298675537,-0.05,-0.01,0.01,0.05
28.65661883354187,-0.05,-0.02,0.01,0.05
28.67266297340393,-0.05,-0.02,0.01,0.05
28.674248933792114,-0.06,-0.02,0.02,0.06
28.68443989753723,-0.05,-0.02,0.02,0.05
28.694540977478027,-0.05,-0.02,0.03,0.06
28.70689082145691,-0.04,-0.03,0.02,0.05
28.7201988697052,-0.05,-0.02,0.02,0.05
28.723748922348022,-0.05,-0.01,0.02,0.05
28.73390293121338,-0.05,-0.01,0.02,0.05
28.744054079055786,-0.05,-0.02,0.02,0.05
28.75420308113098,-0.05,-0.03,0.01,0.05
28.76595902442932,-0.05,-0.03,0.01,0.05
28.773566961288452,-0.05,-0.01,0.01,0.05
28.786436796188354,-0.06,-0.02,0.02,0.06
28.795056104660034,-0.06,-0.02,0.01,0.06
28.806023836135864,-0.05,-0.02,0.02,0.05
28.822371006011963,-0.05,-0.02,0.03,0.06
28.823601961135864,-0.04,-0.03,0.02,0.05
28.83871579170227,-0.05,-0.02,0.02,0.05
28.843029022216797,-0.05,-0.02,0.01,0.05
28.85349678993225,-0.05,-0.02,0.02,0.05
28.866007089614868,-0.05,-0.02,0.01,0.05
28.8728289604187,-0.05,-0.02,0.01,0.05
28.8830988407135,-0.05,-0.02,0.01,0.05
28.89463996887207,-0.05,-0.02,0.01,0.05
28.904576063156128,-0.05,-0.02,0.02,0.05
28.923337936401367,-0.05,-0.02,0.01,0.05
28.924132108688354,-0.05,-0.02,0.01,0.05
28.932710886001587,-0.04,-0.02,0.01,0.04
28.942624807357788,-0.04,-0.02,0.02,0.04
28.954903841018677,-0.05,-0.02,0.01,0.05
28.96623682975769,-0.05,-0.02,0.01,0.05
28.972182035446167,-0.05,-0.02,0.01,0.05
28.982453107833862,-0.04,-0.02,0.02,0.04
28.99267601966858,-0.06,-0.02,0.01,0.06
29.005365133285522,-0.05,-0.03,0.01,0.05
29.018654108047485,-0.06,-0.03,0.01,0.06
29.02197289466858,-0.06,-0.02,0.02,0.06
29.031848907470703,-0.05,-0.02,0.01,0.05
29.04150414466858,-0.05,-0.02,0.01,0.05
29.051559925079346,-0.05,-0.02,0.01,0.05
29.065990924835205,-0.05,-0.03,0.01,0.05
29.071810007095337,-0.06,-0.02,0.01,0.06
29.083141088485718,-0.05,-0.02,0.01,0.05
29.093744039535522,-0.05,-0.03,0.02,0.06
29.104870080947876,-0.04,-0.02,0.02,0.04
29.113914966583252,-0.04,-0.03,0.01,0.05
29.120791912078857,-0.05,-0.02,0.02,0.05
29.130635976791382,-0.06,-0.02,0.02,0.06
29.1406569480896,-0.05,-0.02,0.01,0.05
29.151975870132446,-0.04,-0.02,0.01,0.04
29.169141054153442,-0.05,-0.03,0.02,0.06
29.170629024505615,-0.05,-0.02,0.02,0.05
29.184783935546875,-0.05,-0.02,0.02,0.05
29.191702127456665,-0.05,-0.04,0.01,0.06
29.20179796218872,-0.05,-0.03,0.01,0.05
29.212780952453613,-0.06,-0.02,0.01,0.06
29.22044801712036,-0.05,-0.03,0.02,0.06
29.23019003868103,-0.05,-0.02,0.01,0.05
29.241581916809082,-0.06,-0.03,0.02,0.06
29.251346826553345,-0.05,-0.03,0.02,0.06
29.26404094696045,-0.05,-0.01,0.01,0.05
29.269724130630493,-0.05,-0.02,0.02,0.05
29.279564142227173,-0.05,-0.02,0.02,0.05
29.29174304008484,-0.05,-0.02,0.01,0.05
29.301331996917725,-0.04,-0.02,0.01,0.04
29.320003986358643,-0.05,-0.02,0.01,0.05
29.32114291191101,-0.05,-0.03,0.01,0.05
29.329599142074585,-0.05,-0.03,0.01,0.05
29.33953094482422,-0.05,-0.02,0.01,0.05
29.35004210472107,-0.04,-0.02,0.01,0.04
29.360899925231934,-0.04,-0.02,0.01,0.04
29.369964838027954,-0.05,-0.03,0.01,0.05
29.37969708442688,-0.06,-0.02,0.02,0.06
29.389326810836792,-0.05,-0.02,0.02,0.05
29.39949107170105,-0.05,-0.02,0.01,0.05
29.409881830215454,-0.05,-0.03,0.02,0.06
29.419531106948853,-0.05,-0.02,0.01,0.05
29.429363012313843,-0.06,-0.03,0.02,0.06
29.439464807510376,-0.05,-0.03,0.02,0.06
29.45129704475403,-0.05,-0.02,0.02,0.05
29.466848134994507,-0.05,-0.02,0.01,0.05
29.46876883506775,-0.06,-0.03,0.01,0.06
29.479050874710083,-0.05,-0.02,0.01,0.05
29.48884391784668,-0.04,-0.02,0.02,0.04
29.50132393836975,-0.05,-0.02,0.02,0.05
29.516629934310913,-0.05,-0.02,0.02,0.05
29.518500089645386,-0.05,-0.03,0.02,0.06
29.528748989105225,-0.05,-0.03,0.01,0.05
