time,ax,ay,az,atotal
0.023118019104003906,-0.67,0.11,0.72,0.98
0.02458810806274414,-0.87,-0.23,0.99,1.33
0.05466508865356445,-0.98,0.0,1.01,1.4
0.05611920356750488,-0.84,0.18,1.11,1.4
0.05808210372924805,-0.45,0.23,0.98,1.1
0.07757711410522461,0.35,0.0,0.2,0.4
0.07927703857421875,0.79,-0.37,-0.03,0.87
0.09490013122558594,0.48,-0.49,0.07,0.68
0.09649801254272461,0.06,-0.51,0.13,0.52
0.11188316345214844,-0.22,0.39,0.5,0.67
0.1206660270690918,-0.17,0.47,0.44,0.66
0.1249542236328125,-0.28,-0.08,0.61,0.67
0.12651419639587402,-0.22,0.01,0.13,0.25
0.14463329315185547,-0.22,0.25,-0.42,0.53
0.14697933197021484,-0.29,0.4,-0.49,0.69
0.16014909744262695,-0.23,0.7,-0.5,0.89
0.16598224639892578,-0.23,0.97,-0.58,1.15
0.1811380386352539,-0.37,0.93,-0.51,1.12
0.18793916702270508,-0.57,0.76,-0.15,0.96
0.19524621963500977,-0.6,0.71,0.24,0.96
0.2054443359375,-0.67,0.52,0.42,0.94
0.21559524536132812,-1.21,0.12,-0.04,1.21
0.22775912284851074,-1.45,0.32,-0.79,1.68
0.23501300811767578,-1.36,0.39,-1.24,1.88
0.24740219116210938,-1.2,0.44,-1.33,1.84
0.25785112380981445,-1.24,0.55,-0.8,1.57
0.2649703025817871,-1.41,0.6,-0.56,1.63
0.27846217155456543,-1.75,0.78,-0.65,2.02
0.287534236907959,5.24,0.53,-4.78,7.11
0.29500818252563477,2.32,-5.66,-0.31,6.12
0.3043961524963379,-2.82,-0.34,2.99,4.12
0.3144071102142334,0.47,0.14,1.14,1.24
0.3249931335449219,0.24,0.57,1.0,1.17
0.33707213401794434,-0.78,-1.08,0.67,1.49
0.3446011543273926,-0.27,0.64,-0.2,0.72
0.3540630340576172,-0.03,-0.18,0.47,0.5
0.3645763397216797,0.41,-0.58,0.59,0.92
0.37644219398498535,0.53,-0.49,0.3,0.78
0.3863852024078369,0.23,-0.77,0.71,1.07
0.3959822654724121,0.11,-1.0,1.44,1.75
0.40556907653808594,0.25,-0.66,1.74,1.87
0.41378211975097656,-0.17,-0.48,1.63,1.7
0.4247913360595703,-0.29,0.06,1.04,1.08
0.43600916862487793,1.25,-0.99,1.21,2.0
0.4439852237701416,1.02,-1.16,-0.65,1.67
0.45351314544677734,-0.75,0.47,-1.42,1.67
0.46342921257019043,-0.34,0.3,-1.15,1.23
0.47544121742248535,-0.14,0.56,-1.08,1.22
0.48520612716674805,-0.14,0.98,-0.31,1.03
0.4954562187194824,-0.23,1.0,0.54,1.15
0.5064702033996582,-0.15,0.59,1.74,1.84
0.5129122734069824,-0.34,0.85,2.11,2.3
0.5231943130493164,-0.14,1.13,1.52,1.89
0.5331761837005615,-0.25,0.86,1.2,1.49
0.5451021194458008,-0.12,0.57,0.54,0.79
0.5566692352294922,-0.18,0.27,0.03,0.32
0.5627403259277344,-0.24,0.05,-0.01,0.24
0.5775902271270752,-0.36,-0.16,0.09,0.4
0.5824222564697266,-0.44,-0.18,0.04,0.47
0.5984582901000977,-0.3,-0.12,0.13,0.34
0.6092352867126465,-0.17,0.36,-0.15,0.42
0.6122403144836426,-0.44,1.26,-0.48,1.41
0.6272802352905273,-0.25,0.65,-0.33,0.77
0.6327681541442871,-0.16,0.67,0.13,0.7
0.6481852531433105,-0.46,0.55,0.39,0.81
0.6569080352783203,-0.27,0.21,0.37,0.5
0.6621842384338379,-0.38,0.23,-0.14,0.46
0.6769471168518066,-0.21,-0.19,-0.27,0.39
0.6822342872619629,0.01,0.03,-0.12,0.12
0.6979691982269287,-0.43,0.28,0.0,0.51
0.7068772315979004,-0.17,-0.04,0.06,0.18
0.7117152214050293,-0.22,0.25,0.22,0.39
0.7271862030029297,-0.2,0.15,0.28,0.37
0.7318382263183594,0.84,-0.61,0.37,1.1
0.7478711605072021,-1.18,-1.46,1.88,2.65
0.7601301670074463,-0.36,1.01,1.4,1.76
0.7619380950927734,-0.02,0.29,0.94,0.98
0.7771530151367188,-0.46,0.11,1.16,1.25
0.7816920280456543,-0.31,-0.24,1.05,1.12
0.7977991104125977,-0.41,0.42,0.98,1.14
0.8066811561584473,-0.5,0.22,0.9,1.05
0.810786247253418,-0.5,0.44,0.85,1.07
0.8209991455078125,-0.52,0.42,0.71,0.97
0.8310291767120361,-0.74,0.17,0.69,1.02
0.8436622619628906,-0.65,-0.32,0.77,1.05
0.8551530838012695,-0.08,-3.79,-9.55,10.27
0.8607351779937744,-0.51,-0.39,-5.84,5.87
0.8774471282958984,0.37,0.5,2.61,2.68
0.8807930946350098,-0.59,0.17,-1.71,1.81
0.8974742889404297,0.24,-0.36,0.43,0.61
0.9061131477355957,0.29,-0.29,-0.09,0.41
0.9105031490325928,-0.27,0.47,-1.02,1.15
0.9268512725830078,-0.14,0.77,-0.25,0.82
0.930321216583252,0.15,0.13,0.39,0.43
0.9459290504455566,-0.05,-0.1,0.21,0.23
0.953559160232544,-0.15,-0.21,0.28,0.38
0.9601101875305176,-0.1,-0.82,-0.04,0.82
0.9700813293457031,0.0,-1.19,0.14,1.19
0.9801692962646484,-0.04,-1.14,0.46,1.22
0.9927072525024414,-0.11,-1.26,0.26,1.29
1.0040183067321777,-0.05,-1.17,0.03,1.17
1.009782314300537,-0.1,-0.83,0.25,0.87
1.019768238067627,-0.07,-0.6,0.42,0.73
1.032041072845459,-0.02,-0.49,0.03,0.49
1.0398173332214355,0.08,-0.35,0.08,0.36
1.0492331981658936,-0.03,-0.11,0.29,0.31
1.0594282150268555,-0.17,-0.21,0.2,0.33
1.0695111751556396,-0.13,-0.06,0.01,0.14
1.0815253257751465,-0.07,0.14,0.11,0.19
1.0914950370788574,-0.02,0.39,0.25,0.46
1.1032001972198486,-0.04,0.45,0.07,0.45
1.1090881824493408,0.0,0.51,0.01,0.51
1.1186943054199219,-0.06,0.38,0.16,0.41
1.129073143005371,-0.1,0.11,0.12,0.19
1.1419851779937744,-0.12,-0.1,0.16,0.22
1.1516661643981934,-0.06,-0.23,0.2,0.31
1.1584372520446777,-0.01,-0.47,0.37,0.59
1.1686711311340332,-0.02,-0.64,0.44,0.77
1.1805310249328613,-0.07,-0.64,0.33,0.72
1.1911072731018066,-0.11,-0.29,0.34,0.46
1.201794147491455,-0.11,-0.13,0.09,0.19
1.2083382606506348,-0.04,0.01,-0.05,0.06
1.2181220054626465,-0.04,-0.09,-0.24,0.25
1.2341041564941406,-0.01,-0.43,-0.26,0.5
1.2379140853881836,-0.06,-0.81,0.62,1.02
1.2480831146240234,-0.09,-1.18,0.33,1.22
1.25819730758667,-0.03,-1.48,0.12,1.48
1.2700722217559814,-0.09,-1.23,0.12,1.23
1.2776823043823242,-0.08,-0.88,0.01,0.88
1.2901573181152344,-0.03,-0.44,0.03,0.44
1.30015230178833,-0.01,-0.11,0.02,0.11
1.307922124862671,-0.08,-0.04,0.2,0.21
1.317918300628662,-0.1,-0.06,0.28,0.3
1.3299570083618164,-0.05,-0.05,0.11,0.13
1.3398661613464355,-0.02,-0.05,0.16,0.16
1.3534622192382812,-0.05,-0.05,0.22,0.23
1.3571882247924805,-0.06,-0.04,0.21,0.22
1.366927146911621,-0.06,-0.03,0.21,0.22
1.37758207321167,-0.07,-0.07,0.27,0.28
1.3905973434448242,-0.06,-0.06,0.0,0.08
1.399853229522705,-0.07,-0.07,0.09,0.13
1.406959056854248,-0.1,-0.07,0.3,0.32
1.416736125946045,-0.07,-0.02,0.17,0.18
1.429455280303955,-0.02,-0.01,0.21,0.21
1.4364781379699707,-0.02,-0.03,0.27,0.27
1.4468982219696045,-0.03,-0.01,0.17,0.17
1.4566850662231445,-0.05,-0.02,0.15,0.15
1.4692931175231934,-0.04,-0.04,0.17,0.17
1.4765563011169434,-0.07,-0.07,0.15,0.17
1.4898653030395508,-0.08,-0.07,0.08,0.13
1.500349998474121,-0.08,-0.06,0.13,0.16
1.5062832832336426,-0.06,-0.02,0.14,0.15
1.516172170639038,-0.04,0.14,0.06,0.15
1.526529312133789,-0.08,0.17,0.09,0.2
1.5364623069763184,-0.08,0.12,0.16,0.21
1.5461030006408691,-0.05,0.06,0.17,0.18
1.5558080673217773,-0.05,0.04,0.21,0.21
1.5684471130371094,-0.06,0.04,0.15,0.16
1.5755672454833984,-0.04,0.06,0.18,0.19
1.5893871784210205,-0.05,0.02,0.22,0.22
1.5990300178527832,-0.07,0.03,0.25,0.26
1.6057491302490234,-0.06,0.09,0.09,0.14
1.6155872344970703,-0.06,0.16,-0.02,0.17
1.6259171962738037,-0.07,0.15,-0.04,0.17
1.6391410827636719,-0.02,0.04,0.15,0.15
1.649083137512207,-0.05,-0.14,0.16,0.21
1.6552841663360596,-0.05,-0.15,0.18,0.23
1.665330171585083,-0.09,-0.21,0.19,0.29
1.6754913330078125,-0.06,-0.22,0.07,0.23
1.685218334197998,-0.04,-0.36,0.11,0.37
1.6947760581970215,-0.06,-0.32,0.19,0.37
1.7053380012512207,-0.07,-0.3,0.12,0.33
1.717306137084961,-0.07,-0.37,0.17,0.41
1.7245092391967773,-0.07,-0.26,0.25,0.36
1.7378382682800293,-0.04,0.26,0.32,0.41
1.7502391338348389,-0.05,0.16,-0.02,0.16
1.7541632652282715,-0.05,-0.05,0.13,0.14
1.7646360397338867,-0.08,-0.23,0.29,0.37
1.7744812965393066,-0.05,-0.18,0.2,0.27
1.7875502109527588,-0.06,-0.11,0.13,0.18
1.7969260215759277,-0.1,-0.03,0.12,0.15
1.8042011260986328,-0.08,-0.03,0.08,0.11
1.8143482208251953,-0.04,-0.06,0.14,0.15
1.8246681690216064,-0.03,-0.07,0.16,0.17
1.8372492790222168,-0.06,-0.09,0.14,0.17
1.847339153289795,-0.08,-0.09,0.13,0.17
1.8540191650390625,-0.06,-0.08,0.13,0.16
1.8636813163757324,-0.04,-0.08,0.18,0.2
1.8769183158874512,-0.06,-0.09,0.16,0.19
1.8835830688476562,-0.06,-0.08,0.16,0.18
1.893416166305542,-0.04,-0.04,0.15,0.16
1.9039561748504639,-0.05,-0.04,0.14,0.15
1.91597318649292,-0.06,-0.06,0.13,0.15
1.9229872226715088,-0.07,-0.05,0.13,0.15
1.9356350898742676,-0.06,-0.04,0.13,0.14
1.9477121829986572,-0.05,-0.04,0.15,0.16
1.9529342651367188,-0.06,-0.05,0.15,0.16
1.9631481170654297,-0.05,-0.04,0.15,0.16
1.9731931686401367,-0.04,-0.04,0.14,0.15
1.9852211475372314,-0.04,-0.04,0.15,0.16
1.9949803352355957,-0.06,-0.04,0.13,0.14
2.0027413368225098,-0.07,-0.04,0.12,0.14
2.0126311779022217,-0.06,-0.06,0.14,0.16
2.0258262157440186,-0.05,-0.05,0.15,0.16
2.032224178314209,-0.06,-0.06,0.14,0.16
2.042213201522827,-0.07,-0.06,0.14,0.16
2.052840232849121,-0.07,-0.05,0.13,0.15
2.065214157104492,-0.06,-0.04,0.15,0.16
2.072188138961792,-0.06,-0.04,0.14,0.15
2.085573196411133,-0.05,-0.05,0.13,0.14
2.096100330352783,-0.05,-0.04,0.15,0.16
2.1021461486816406,-0.04,-0.05,0.14,0.15
2.1119492053985596,-0.05,-0.05,0.14,0.15
2.122176170349121,-0.06,-0.06,0.14,0.16
2.1334762573242188,-0.06,-0.05,0.14,0.16
2.1458611488342285,-0.06,-0.04,0.15,0.16
2.1514852046966553,-0.04,-0.04,0.14,0.15
2.163682222366333,-0.05,-0.03,0.13,0.14
2.173790216445923,-0.07,-0.05,0.13,0.15
2.1836631298065186,-0.07,-0.04,-0.07,0.1
2.192089080810547,0.04,-0.04,0.54,0.54
2.2014570236206055,-0.13,-0.04,0.29,0.32
2.211440086364746,-0.11,-0.05,-0.39,0.4
2.22379207611084,0.0,-0.05,0.48,0.48
2.2316622734069824,-0.11,-0.03,0.32,0.33
2.2411651611328125,-0.08,-0.04,0.06,0.1
2.2516651153564453,0.04,0.0,0.16,0.16
2.264801025390625,-0.1,-0.11,-0.11,0.18
2.271209239959717,-0.14,-0.03,-0.06,0.15
2.2834882736206055,0.03,-0.08,0.34,0.35
2.2953052520751953,0.06,-0.09,-0.43,0.44
2.30074405670166,-0.13,0.04,0.86,0.87
2.310408115386963,-0.16,-0.07,0.0,0.17
2.321251153945923,-0.03,-0.09,-0.15,0.17
2.333444118499756,0.01,-0.05,0.4,0.4
2.3431451320648193,-0.06,-0.02,0.0,0.06
2.350487232208252,-0.08,-0.02,0.18,0.19
2.3608171939849854,-0.05,-0.07,0.12,0.14
2.373305320739746,0.0,-0.13,0.13,0.18
2.380319118499756,-0.11,-0.05,0.3,0.32
2.3901801109313965,-0.06,-0.35,0.25,0.43
2.400078296661377,-0.07,-0.52,0.25,0.58
2.4122281074523926,-0.12,-0.49,0.33,0.6
2.422372341156006,-0.05,-0.28,-0.23,0.36
2.429781198501587,0.13,0.62,-0.47,0.78
2.439765214920044,-0.08,0.77,-0.73,1.06
2.450137138366699,-0.08,0.16,-0.57,0.59
2.462050199508667,-0.01,-0.08,-0.28,0.29
2.4695041179656982,0.02,-0.01,-0.17,0.17
2.4819371700286865,-0.03,0.14,-0.27,0.3
2.4940271377563477,-0.07,0.07,1.16,1.16
2.4994921684265137,0.03,0.2,-0.4,0.44
2.510550022125244,-0.14,0.34,-0.19,0.41
2.5197362899780273,-0.1,0.14,0.22,0.27
2.5317130088806152,-0.02,0.18,0.15,0.23
2.5414981842041016,-0.05,-0.04,0.22,0.22
2.549075126647949,-0.08,-0.18,0.58,0.61
2.5601651668548584,-0.39,-1.2,3.11,3.35
2.5719642639160156,0.05,0.4,3.96,3.98
2.578824043273926,-0.07,0.69,-1.04,1.25
2.5887341499328613,-0.15,-0.32,-0.88,0.94
2.598891258239746,0.03,-0.61,-1.84,1.93
2.611161231994629,0.04,-0.23,-0.66,0.7
2.6183512210845947,-0.11,0.2,0.72,0.75
2.6308231353759766,-0.12,-0.16,-0.08,0.21
2.6408143043518066,0.08,-0.02,0.27,0.28
2.6482841968536377,0.04,0.01,0.31,0.31
2.660994052886963,-0.15,-0.04,0.07,0.17
2.6687281131744385,-0.21,-0.09,0.19,0.29
2.681356191635132,-0.1,-0.01,0.0,0.1
2.6913909912109375,0.08,0.0,0.23,0.24
2.6982812881469727,0.04,0.01,0.26,0.26
2.710785150527954,-0.1,-0.04,-0.03,0.11
2.720743179321289,-0.17,-0.06,0.21,0.27
2.7276711463928223,-0.02,-0.02,0.07,0.07
2.7377381324768066,-0.04,-0.03,0.16,0.16
2.7477481365203857,-0.09,-0.07,0.16,0.19
2.760209083557129,-0.09,-0.04,0.05,0.11
2.76750111579895,-0.01,-0.01,0.09,0.09
2.779999256134033,0.0,-0.04,0.17,0.17
2.793671131134033,-0.08,-0.08,-0.02,0.11
2.7974281311035156,-0.15,-0.07,0.16,0.23
2.8110251426696777,-0.02,0.01,0.17,0.17
2.817477226257324,0.03,0.01,0.21,0.21
2.829710006713867,-0.06,-0.08,0.01,0.1
2.8368911743164062,-0.14,-0.06,0.11,0.18
2.847154140472412,-0.04,0.0,0.05,0.06
2.8597941398620605,0.0,-0.01,0.53,0.53
2.8691272735595703,-0.09,-0.04,0.08,0.12
2.876706123352051,-0.07,-0.06,0.03,0.09
2.8865280151367188,-0.04,0.0,0.19,0.19
2.896573066711426,-0.03,0.0,0.19,0.19
2.909304141998291,-0.1,-0.08,0.09,0.15
2.9168472290039062,-0.13,-0.09,0.08,0.17
2.928746223449707,-0.04,0.0,0.11,0.11
2.9388723373413086,0.02,-0.04,0.21,0.21
2.9463961124420166,-0.05,-0.07,0.07,0.11
2.961721181869507,-0.11,-0.03,0.08,0.13
2.966597080230713,-0.06,-0.04,0.14,0.15
2.981667995452881,-0.01,-0.03,0.11,0.11
2.990218162536621,-0.05,-0.02,0.14,0.15
2.9960989952087402,-0.07,-0.03,0.13,0.15
3.0094690322875977,-0.05,-0.03,0.15,0.16
3.016296148300171,-0.04,-0.03,0.14,0.14
3.030412197113037,-0.08,-0.04,0.1,0.13
3.0389890670776367,-0.11,-0.05,0.09,0.15
3.045776128768921,-0.06,-0.02,0.1,0.11
3.060432195663452,-0.01,-0.03,0.13,0.13
3.067789077758789,-0.04,-0.03,0.15,0.15
3.0779671669006348,-0.08,-0.04,0.14,0.16
3.0865540504455566,-0.07,-0.04,0.14,0.16
3.095461130142212,-0.05,-0.03,0.14,0.15
3.1054320335388184,-0.05,-0.02,0.12,0.13
3.1180930137634277,-0.06,-0.03,0.1,0.12
3.1245532035827637,-0.06,-0.06,0.13,0.15
3.1352410316467285,-0.06,-0.05,0.42,0.42
3.145442008972168,-0.05,-0.03,0.08,0.09
3.1580231189727783,-0.08,-0.05,0.26,0.27
3.166729211807251,-0.07,-0.05,0.15,0.17
3.1743111610412598,-0.05,-0.05,0.15,0.16
3.1847381591796875,-0.03,-0.03,0.0,0.04
3.1946961879730225,-0.06,-0.05,0.2,0.21
3.206669330596924,-0.06,-0.03,0.1,0.12
3.2148921489715576,-0.07,-0.03,0.04,0.08
3.2266712188720703,-0.05,-0.02,0.09,0.1
3.2386722564697266,-0.04,-0.02,0.07,0.08
3.2443270683288574,-0.06,-0.02,0.08,0.1
3.2612900733947754,-0.05,-0.02,0.02,0.05
3.26416015625,-0.04,-0.06,-0.04,0.08
3.280825138092041,-0.07,-0.06,0.02,0.09
3.2919583320617676,-0.04,-0.03,0.09,0.1
3.2938101291656494,-0.03,-0.02,0.06,0.06
3.311528205871582,-0.05,-0.02,0.05,0.07
3.313930034637451,-0.07,-0.05,0.2,0.21
3.329935073852539,-0.05,-0.04,0.25,0.25
3.338524341583252,-0.07,-0.05,0.08,0.11
3.3434181213378906,-0.07,-0.03,0.17,0.18
3.3613500595092773,-0.08,-0.03,0.19,0.2
3.3636412620544434,-0.02,-0.01,0.09,0.09
3.3814051151275635,-0.05,-0.05,0.18,0.19
3.391662120819092,-0.06,-0.04,0.11,0.13
3.3934011459350586,-0.06,-0.05,0.14,0.16
3.411640167236328,-0.02,0.01,0.15,0.15
3.4140191078186035,0.04,0.02,0.01,0.04
3.429448127746582,-0.13,-0.08,0.06,0.16
3.438009262084961,-0.23,0.02,-0.04,0.23
3.4428911209106445,0.03,-0.04,0.17,0.17
3.4721081256866455,-0.08,-0.1,0.24,0.27
3.474494218826294,-0.07,-0.03,0.05,0.09
3.4765820503234863,-0.07,-0.05,0.09,0.12
3.484401226043701,-0.03,-0.05,0.21,0.21
3.4923672676086426,-0.02,-0.03,0.12,0.12
3.5024032592773438,-0.07,-0.02,0.1,0.12
3.5123231410980225,-0.07,-0.03,0.12,0.14
3.5223422050476074,-0.05,-0.02,0.13,0.14
3.5320491790771484,-0.04,-0.03,0.15,0.15
3.5444650650024414,-0.05,-0.04,0.14,0.15
3.552053213119507,-0.07,-0.05,0.09,0.12
3.563913345336914,-0.09,-0.05,0.13,0.16
3.574092149734497,-0.06,-0.04,0.1,0.12
3.585405111312866,-0.03,-0.02,0.12,0.12
3.5917510986328125,-0.05,-0.03,0.14,0.15
3.6017723083496094,-0.07,-0.03,0.11,0.13
3.6118721961975098,-0.05,-0.03,0.11,0.12
3.6242942810058594,-0.05,-0.04,0.13,0.14
3.6366331577301025,-0.07,-0.03,0.12,0.14
3.641256332397461,-0.07,-0.06,0.09,0.12
3.651785135269165,-0.05,-0.05,0.12,0.13
3.662576198577881,-0.05,-0.03,0.12,0.13
3.673358201980591,-0.06,-0.03,0.1,0.12
3.6858551502227783,-0.06,-0.03,0.09,0.11
3.6907382011413574,-0.05,-0.03,0.1,0.11
3.700958251953125,-0.05,-0.03,0.12,0.13
3.7107062339782715,-0.05,-0.03,0.12,0.13
3.7239761352539062,-0.06,-0.05,0.13,0.15
3.7387142181396484,-0.06,-0.05,0.12,0.14
3.7404701709747314,-0.07,-0.04,0.11,0.13
3.7614121437072754,-0.06,-0.04,0.1,0.12
3.763576030731201,-0.06,-0.03,0.1,0.12
3.770691156387329,-0.05,-0.03,0.11,0.12
3.7800371646881104,-0.05,-0.02,0.11,0.12
3.7909040451049805,-0.06,-0.04,0.12,0.13
3.802791118621826,-0.06,-0.03,0.11,0.12
3.810335159301758,-0.06,-0.04,0.11,0.13
3.822127342224121,-0.06,-0.04,0.12,0.13
3.8340330123901367,-0.06,-0.03,0.11,0.12
3.8399221897125244,-0.06,-0.03,0.1,0.12
3.852725028991699,-0.07,-0.04,0.1,0.12
3.8617141246795654,-0.05,-0.03,0.11,0.12
3.869476318359375,-0.05,-0.03,0.11,0.12
3.879885196685791,-0.05,-0.03,0.13,0.14
3.8900933265686035,-0.05,-0.03,0.11,0.12
3.9021401405334473,-0.06,-0.04,0.11,0.13
3.9112210273742676,-0.06,-0.04,0.12,0.13
3.922556161880493,-0.05,-0.03,0.11,0.12
3.932709217071533,-0.05,-0.03,0.11,0.12
3.9392542839050293,-0.05,-0.04,0.11,0.12
3.9493842124938965,-0.06,-0.03,0.1,0.12
3.9612691402435303,-0.06,-0.04,0.11,0.13
3.9688172340393066,-0.06,-0.04,0.11,0.13
3.9790151119232178,-0.06,-0.04,0.11,0.13
3.9913930892944336,-0.06,-0.04,0.12,0.13
4.0005693435668945,-0.06,-0.04,0.11,0.13
4.011392116546631,-0.05,-0.03,0.12,0.13
4.018650054931641,-0.05,-0.03,0.12,0.13
4.026349067687988,-0.05,-0.03,0.12,0.13
4.034934997558594,-0.06,-0.03,0.1,0.12
4.047276020050049,-0.06,-0.04,0.11,0.13
4.055568218231201,-0.06,-0.04,0.11,0.13
4.0669331550598145,-0.06,-0.03,0.11,0.12
4.079590320587158,-0.06,-0.03,0.11,0.12
4.083932161331177,-0.06,-0.03,0.11,0.12
4.094354152679443,-0.07,-0.04,0.11,0.13
4.106809139251709,-0.06,-0.04,0.12,0.13
4.114493131637573,-0.07,-0.02,0.1,0.12
4.124334335327148,-0.05,-0.03,0.08,0.09
4.134072303771973,-0.03,-0.04,0.11,0.12
4.146772146224976,-0.05,-0.04,0.13,0.14
4.154163122177124,-0.07,-0.04,0.08,0.11
4.1663901805877686,-0.06,-0.04,0.11,0.13
4.178549289703369,-0.04,-0.01,0.11,0.11
4.183714151382446,-0.04,-0.02,0.08,0.09
4.193280220031738,-0.06,-0.02,0.1,0.11
4.203822135925293,-0.06,-0.03,0.1,0.12
4.215288162231445,-0.06,-0.04,0.11,0.13
4.22468113899231,-0.06,-0.04,0.1,0.12
4.233060121536255,-0.06,-0.04,0.11,0.13
4.243078231811523,-0.05,-0.04,0.11,0.12
4.256287097930908,-0.05,-0.03,0.1,0.11
4.265347003936768,-0.06,-0.03,0.11,0.12
4.275088310241699,-0.05,-0.04,0.11,0.12
4.282916069030762,-0.05,-0.03,0.1,0.11
4.293272018432617,-0.06,-0.04,0.09,0.11
4.3054962158203125,-0.06,-0.04,0.1,0.12
4.314586162567139,-0.06,-0.03,0.11,0.12
4.326858997344971,-0.06,-0.03,0.11,0.12
4.332636117935181,-0.05,-0.03,0.11,0.12
4.342368125915527,-0.06,-0.03,0.11,0.12
4.355257034301758,-0.06,-0.03,0.1,0.12
4.364307165145874,-0.05,-0.04,0.11,0.12
4.377466201782227,-0.06,-0.04,0.11,0.13
4.38195013999939,-0.06,-0.04,0.1,0.12
4.392003059387207,-0.05,-0.03,0.1,0.11
4.404268264770508,-0.05,-0.04,0.12,0.13
4.412036180496216,-0.05,-0.04,0.1,0.11
4.422120094299316,-0.05,-0.03,0.11,0.12
4.4316301345825195,-0.06,-0.03,0.1,0.12
4.442988157272339,-0.05,-0.03,0.1,0.11
4.453923225402832,-0.06,-0.03,0.1,0.12
4.461794137954712,-0.05,-0.04,0.1,0.11
4.471338272094727,-0.05,-0.04,0.09,0.11
4.481844186782837,-0.06,-0.04,0.11,0.13
4.493648052215576,-0.06,-0.04,0.1,0.12
4.503585338592529,-0.06,-0.04,0.09,0.11
4.513382196426392,-0.06,-0.03,0.11,0.12
4.525920152664185,-0.05,-0.02,0.1,0.11
4.530878067016602,-0.05,-0.02,0.09,0.1
4.542030334472656,-0.04,-0.02,0.1,0.1
4.553635120391846,-0.05,-0.03,0.1,0.11
4.562901020050049,-0.07,-0.04,0.1,0.12
4.573833227157593,-0.07,-0.03,0.09,0.11
4.58081316947937,-0.05,-0.03,0.11,0.12
4.593627214431763,-0.05,-0.03,0.1,0.11
4.606072187423706,-0.06,-0.04,0.09,0.11
4.615106105804443,-0.06,-0.03,0.1,0.12
4.625222206115723,-0.06,-0.03,0.11,0.12
4.6329193115234375,-0.06,-0.03,0.11,0.12
4.643232345581055,-0.06,-0.03,0.1,0.12
4.6556782722473145,-0.06,-0.04,0.09,0.11
4.663171291351318,-0.05,-0.03,0.1,0.11
4.6726861000061035,-0.05,-0.03,0.09,0.1
4.682613134384155,-0.05,-0.04,0.08,0.1
4.693243026733398,-0.06,-0.04,0.09,0.11
4.705434322357178,-0.06,-0.03,0.1,0.12
4.7135021686553955,-0.06,-0.03,0.1,0.12
4.724573135375977,-0.06,-0.03,0.09,0.11
4.732008218765259,-0.06,-0.02,0.1,0.11
4.742532253265381,-0.05,-0.03,0.1,0.11
4.754598140716553,-0.06,-0.03,0.09,0.11
4.764163017272949,-0.05,-0.03,0.11,0.12
4.777412176132202,-0.05,-0.03,0.09,0.1
4.78209924697876,-0.06,-0.02,0.1,0.11
4.793010234832764,-0.05,-0.04,0.09,0.11
4.802051067352295,-0.05,-0.03,0.09,0.1
4.813911199569702,-0.05,-0.04,0.09,0.11
4.827505111694336,-0.06,-0.03,0.09,0.11
4.831451177597046,-0.06,-0.03,0.09,0.11
4.841891288757324,-0.06,-0.04,0.09,0.11
4.8528523445129395,-0.06,-0.04,0.09,0.11
4.863927125930786,-0.05,-0.03,0.09,0.1
4.880767345428467,-0.06,-0.03,0.08,0.1
4.882033348083496,-0.06,-0.03,0.09,0.11
4.891051292419434,-0.06,-0.03,0.09,0.11
4.903076171875,-0.05,-0.03,0.09,0.1
4.912553310394287,-0.06,-0.03,0.09,0.11
4.9250922203063965,-0.05,-0.03,0.07,0.09
4.9309492111206055,-0.05,-0.03,0.09,0.1
4.943126201629639,-0.07,-0.03,0.09,0.11
4.951125144958496,-0.05,-0.03,0.07,0.09
4.962571144104004,-0.03,-0.03,0.1,0.1
4.972977161407471,-0.04,-0.03,0.11,0.12
4.980571269989014,-0.05,-0.03,0.08,0.09
4.99271821975708,-0.07,-0.03,0.1,0.12
5.002337217330933,-0.07,-0.02,0.1,0.12
5.010282039642334,-0.05,-0.04,0.06,0.08
5.020165205001831,-0.06,-0.02,0.1,0.11
5.030403137207031,-0.05,-0.03,0.07,0.09
5.040272235870361,-0.05,-0.04,0.1,0.11
5.050563335418701,-0.06,-0.03,0.11,0.12
5.062430143356323,-0.05,-0.03,0.09,0.1
5.073228120803833,-0.06,-0.03,0.1,0.12
5.079836130142212,-0.05,-0.02,0.09,0.1
5.093120098114014,-0.05,-0.03,0.09,0.1
5.102024078369141,-0.06,-0.03,0.08,0.1
5.1094911098480225,-0.05,-0.03,0.09,0.1
5.119716167449951,-0.06,-0.04,0.09,0.11
5.129795074462891,-0.08,-0.03,0.08,0.11
5.139817237854004,-0.08,-0.04,0.1,0.13
5.152046203613281,-0.06,-0.03,0.09,0.11
5.15910530090332,-0.03,-0.02,0.09,0.09
5.169072151184082,-0.03,-0.02,0.1,0.1
5.179195165634155,-0.05,-0.02,0.1,0.11
5.192148208618164,-0.06,-0.03,0.09,0.11
5.198831081390381,-0.06,-0.03,0.09,0.11
5.211360216140747,-0.05,-0.03,0.09,0.1
5.224008083343506,-0.05,-0.03,0.09,0.1
5.2289252281188965,-0.06,-0.03,0.09,0.11
5.240833282470703,-0.07,-0.03,0.09,0.11
5.248931169509888,-0.06,-0.04,0.09,0.11
5.261341094970703,-0.04,-0.03,0.09,0.1
5.272410154342651,-0.05,-0.02,0.09,0.1
5.278209209442139,-0.08,-0.02,0.09,0.12
5.291497230529785,-0.08,-0.04,0.08,0.12
5.300693035125732,-0.06,-0.03,0.09,0.11
5.308534145355225,-0.04,-0.04,0.09,0.1
5.318084239959717,-0.05,-0.03,0.09,0.1
5.328273296356201,-0.06,-0.04,0.08,0.1
5.3380560874938965,-0.06,-0.03,0.09,0.11
5.349938154220581,-0.06,-0.03,0.1,0.12
5.3580002784729,-0.06,-0.02,0.09,0.11
5.367701053619385,-0.06,-0.02,0.07,0.09
5.377810001373291,-0.05,-0.02,0.08,0.09
5.388020992279053,-0.05,-0.03,0.09,0.1
5.400078296661377,-0.05,-0.03,0.08,0.09
5.408630132675171,-0.05,-0.03,0.08,0.09
5.42144513130188,-0.06,-0.02,0.08,0.1
5.427439212799072,-0.06,-0.03,0.08,0.1
5.440025329589844,-0.07,-0.03,0.09,0.11
5.449527263641357,-0.06,-0.02,0.07,0.09
5.457507133483887,-0.04,-0.03,0.08,0.09
5.467161178588867,-0.05,-0.03,0.09,0.1
5.477252006530762,-0.05,-0.02,0.07,0.08
5.49018120765686,-0.06,-0.03,0.08,0.1
5.498793125152588,-0.06,-0.03,0.09,0.11
5.508129119873047,-0.06,-0.03,0.08,0.1
5.520061016082764,-0.06,-0.03,0.09,0.11
5.526867151260376,-0.05,-0.03,0.08,0.09
5.536834239959717,-0.05,-0.03,0.08,0.09
5.54700231552124,-0.05,-0.04,0.07,0.09
5.559507131576538,-0.06,-0.03,0.08,0.1
5.570329189300537,-0.07,-0.03,0.08,0.11
5.576539039611816,-0.06,-0.02,0.08,0.1
5.586213111877441,-0.06,-0.02,0.08,0.1
5.598546028137207,-0.05,-0.03,0.08,0.09
5.607937335968018,-0.04,-0.03,0.09,0.1
5.619579315185547,-0.04,-0.02,0.09,0.1
5.62624716758728,-0.06,-0.03,0.08,0.1
5.637514114379883,-0.06,-0.03,0.08,0.1
5.648234128952026,-0.07,-0.03,0.09,0.11
5.655755043029785,-0.07,-0.03,0.08,0.11
5.665933132171631,-0.06,-0.03,0.07,0.09
5.678248167037964,-0.04,-0.04,0.08,0.09
5.685364246368408,-0.05,-0.03,0.08,0.09
5.697987079620361,-0.07,-0.03,0.07,0.1
5.70556116104126,-0.07,-0.03,0.08,0.11
5.715334177017212,-0.06,-0.04,0.11,0.13
5.725988149642944,-0.04,-0.02,0.09,0.1
5.738467216491699,-0.04,-0.03,0.1,0.11
5.747028112411499,-0.06,-0.03,0.1,0.12
5.7572901248931885,-0.06,-0.02,0.04,0.07
5.7676100730896,-0.06,-0.03,0.09,0.11
5.775152206420898,-0.06,-0.02,0.06,0.08
5.785422325134277,-0.05,-0.04,0.05,0.08
5.797772169113159,-0.06,-0.03,0.12,0.13
5.805132150650024,-0.05,-0.02,0.07,0.08
5.81475830078125,-0.05,-0.03,0.07,0.09
5.824787139892578,-0.04,-0.01,0.09,0.09
5.834906101226807,-0.05,-0.02,0.09,0.1
5.846940994262695,-0.06,-0.03,0.07,0.09
5.8545660972595215,-0.06,-0.04,0.07,0.1
5.86398720741272,-0.06,-0.04,0.08,0.1
5.876453161239624,-0.06,-0.04,0.07,0.1
5.885740280151367,-0.07,-0.04,0.07,0.1
5.896460056304932,-0.06,-0.03,0.07,0.09
5.90616512298584,-0.03,-0.02,0.09,0.09
5.915516138076782,-0.05,-0.02,0.09,0.1
5.924290180206299,-0.07,-0.03,0.08,0.11
5.934390068054199,-0.06,-0.02,0.07,0.09
5.945759296417236,-0.05,-0.02,0.08,0.09
5.956083297729492,-0.04,-0.03,0.08,0.09
5.9687652587890625,-0.05,-0.03,0.07,0.09
5.973540306091309,-0.05,-0.03,0.08,0.09
5.983519077301025,-0.06,-0.04,0.09,0.11
5.9938130378723145,-0.06,-0.03,0.07,0.09
6.00390625,-0.04,-0.02,0.08,0.09
6.0134241580963135,-0.03,-0.01,0.1,0.1
6.0234081745147705,-0.04,-0.02,0.08,0.09
6.033650159835815,-0.07,-0.02,0.07,0.1
6.04543924331665,-0.06,-0.03,0.07,0.09
6.053162097930908,-0.05,-0.03,0.07,0.09
6.063111305236816,-0.06,-0.03,0.09,0.11
6.073492050170898,-0.07,-0.03,0.07,0.1
6.085232257843018,-0.06,-0.03,0.07,0.09
6.094968318939209,-0.04,-0.02,0.09,0.1
6.1047682762146,-0.04,-0.02,0.08,0.09
6.115138053894043,-0.05,-0.02,0.08,0.09
6.122510194778442,-0.06,-0.02,0.08,0.1
6.134732246398926,-0.05,-0.03,0.08,0.09
6.142243146896362,-0.06,-0.03,0.07,0.09
6.152574062347412,-0.06,-0.03,0.08,0.1
6.162267208099365,-0.05,-0.03,0.07,0.09
6.172372341156006,-0.05,-0.04,0.06,0.08
6.182339191436768,-0.06,-0.03,0.07,0.09
6.194838047027588,-0.05,-0.02,0.08,0.09
6.203203201293945,-0.05,-0.02,0.08,0.09
6.217169284820557,-0.05,-0.02,0.08,0.09
6.222008228302002,-0.05,-0.03,0.07,0.09
6.2321391105651855,-0.04,-0.03,0.08,0.09
6.244684219360352,-0.05,-0.01,0.09,0.1
6.252196311950684,-0.06,-0.02,0.07,0.09
6.261893272399902,-0.07,-0.04,0.07,0.1
6.2713422775268555,-0.07,-0.03,0.07,0.1
6.28141713142395,-0.06,-0.02,0.07,0.09
6.293220043182373,-0.05,-0.02,0.07,0.08
6.303734302520752,-0.06,-0.02,0.09,0.11
6.31466817855835,-0.05,-0.02,0.07,0.08
6.320984125137329,-0.05,-0.03,0.07,0.09
6.330962181091309,-0.06,-0.03,0.08,0.1
6.343613147735596,-0.05,-0.02,0.07,0.08
6.352456092834473,-0.05,-0.02,0.08,0.09
6.365209102630615,-0.05,-0.03,0.08,0.09
6.370652198791504,-0.06,-0.03,0.08,0.1
6.380887031555176,-0.06,-0.03,0.08,0.1
6.392515182495117,-0.06,-0.03,0.08,0.1
6.402665138244629,-0.06,-0.02,0.07,0.09
6.415555000305176,-0.06,-0.02,0.07,0.09
6.4203572273254395,-0.05,-0.02,0.07,0.08
6.432380199432373,-0.05,-0.02,0.08,0.09
6.442385196685791,-0.05,-0.01,0.06,0.07
6.452123165130615,-0.06,-0.03,0.06,0.09
6.4637041091918945,-0.05,-0.02,0.08,0.09
6.4699461460113525,-0.05,-0.03,0.08,0.09
6.4801130294799805,-0.09,-0.03,0.07,0.11
6.492462158203125,-0.08,-0.03,0.05,0.09
6.5020081996917725,-0.04,-0.03,0.07,0.08
6.510450124740601,-0.03,-0.03,0.09,0.09
6.519779205322266,-0.03,-0.02,0.08,0.08
6.529872179031372,-0.07,-0.03,0.09,0.11
6.540334224700928,-0.08,-0.01,0.04,0.09
6.54994010925293,-0.05,-0.02,0.07,0.08
6.559725284576416,-0.06,-0.01,0.1,0.11
6.569441318511963,-0.05,-0.02,0.03,0.06
6.5797810554504395,-0.05,-0.03,0.09,0.1
6.591556072235107,-0.06,-0.03,0.09,0.11
6.5995001792907715,-0.07,-0.02,0.05,0.08
6.6094372272491455,-0.06,-0.01,0.08,0.1
6.619088172912598,-0.05,-0.01,0.06,0.07
6.6293792724609375,-0.05,-0.02,0.07,0.08
6.641537189483643,-0.04,-0.02,0.06,0.07
6.648945331573486,-0.04,-0.02,0.09,0.1
6.659090995788574,-0.06,-0.03,0.07,0.09
6.66904616355896,-0.07,-0.04,0.05,0.09
6.680951118469238,-0.07,-0.02,0.05,0.08
6.690752029418945,-0.04,-0.02,0.07,0.08
6.700343132019043,-0.05,-0.02,0.08,0.09
6.710615158081055,-0.07,-0.02,0.06,0.09
6.718204021453857,-0.07,-0.03,0.06,0.09
6.730867147445679,-0.04,-0.02,0.07,0.08
6.739217281341553,-0.04,-0.02,0.07,0.08
6.749851226806641,-0.05,-0.02,0.06,0.08
6.76358699798584,-0.06,-0.03,0.07,0.09
6.767858028411865,-0.05,-0.02,0.07,0.08
6.777889251708984,-0.06,-0.03,0.06,0.09
6.788401126861572,-0.05,-0.02,0.07,0.08
6.799808025360107,-0.04,-0.02,0.07,0.08
6.811845302581787,-0.05,-0.02,0.07,0.08
6.817663192749023,-0.07,-0.02,0.08,0.1
6.830351114273071,-0.06,0.0,0.06,0.08
6.837504148483276,-0.04,-0.01,0.06,0.07
6.847667217254639,-0.04,-0.03,0.08,0.09
6.857453346252441,-0.05,-0.02,0.06,0.08
6.867213249206543,-0.06,-0.02,0.06,0.08
6.877655029296875,-0.05,-0.02,0.07,0.08
6.888590335845947,-0.05,-0.02,0.07,0.08
6.89935827255249,-0.05,-0.01,0.06,0.07
6.913609027862549,-0.05,-0.02,0.06,0.08
6.9168541431427,-0.05,-0.02,0.06,0.08
6.927342176437378,-0.04,-0.02,0.07,0.08
6.939637184143066,-0.05,-0.03,0.07,0.09
6.94858717918396,-0.04,-0.03,0.08,0.09
6.959701061248779,-0.06,-0.02,0.08,0.1
6.966804027557373,-0.05,-0.02,0.06,0.08
6.9764721393585205,-0.05,-0.02,0.07,0.08
6.989496231079102,-0.04,-0.02,0.06,0.07
6.996363162994385,-0.05,-0.02,0.06,0.08
7.005955219268799,-0.05,-0.02,0.06,0.08
7.016165256500244,-0.05,-0.02,0.06,0.08
7.02843713760376,-0.05,-0.02,0.08,0.09
7.038600206375122,-0.05,-0.02,0.07,0.08
7.04772424697876,-0.06,-0.02,0.06,0.08
7.05884313583374,-0.04,-0.02,0.07,0.08
7.066042184829712,-0.04,-0.02,0.08,0.09
7.076602220535278,-0.06,-0.01,0.06,0.08
7.0887291431427,-0.06,-0.02,0.07,0.09
7.0979743003845215,-0.05,-0.03,0.07,0.09
7.107815265655518,-0.06,-0.03,0.07,0.09
7.115830183029175,-0.06,-0.02,0.06,0.08
7.125814199447632,-0.05,-0.02,0.06,0.08
7.13822603225708,-0.04,-0.01,0.06,0.07
7.147195339202881,-0.04,-0.01,0.07,0.08
7.15778112411499,-0.06,-0.02,0.07,0.09
7.165277004241943,-0.06,-0.02,0.06,0.08
7.17664909362793,-0.05,-0.02,0.07,0.08
7.1866960525512695,-0.05,-0.02,0.07,0.08
7.1974711418151855,-0.06,-0.02,0.06,0.08
7.21415901184082,-0.05,-0.02,0.06,0.08
7.215456008911133,-0.04,-0.02,0.07,0.08
7.224598169326782,-0.05,-0.02,0.07,0.08
7.237145185470581,-0.05,-0.01,0.06,0.07
7.244371175765991,-0.04,-0.01,0.06,0.07
7.254778146743774,-0.05,-0.02,0.06,0.08
7.26459813117981,-0.07,-0.02,0.04,0.08
7.277431011199951,-0.04,-0.01,0.05,0.06
7.284704208374023,-0.02,-0.01,0.1,0.1
7.297140121459961,-0.05,-0.02,0.09,0.1
7.308309078216553,-0.09,-0.02,0.03,0.09
7.314195156097412,-0.06,-0.01,0.05,0.07
7.32629919052124,-0.04,-0.01,0.09,0.09
7.3345091342926025,-0.04,-0.02,0.03,0.05
7.3471832275390625,-0.04,-0.03,0.05,0.07
7.357636213302612,-0.05,-0.02,0.1,0.11
7.364035129547119,-0.07,-0.03,0.06,0.09
7.376174211502075,-0.07,-0.03,0.05,0.09
7.385918140411377,-0.06,-0.01,0.07,0.09
7.393915176391602,-0.05,0.0,0.07,0.08
7.403640270233154,-0.06,-0.01,0.05,0.07
7.413726329803467,-0.05,-0.02,0.05,0.07
7.423945188522339,-0.04,-0.03,0.07,0.08
7.435545206069946,-0.05,-0.03,0.07,0.09
7.445561170578003,-0.07,-0.02,0.05,0.08
7.456031322479248,-0.06,-0.02,0.06,0.08
7.463321208953857,-0.03,-0.01,0.07,0.07
7.4755330085754395,-0.05,-0.01,0.08,0.09
7.485532283782959,-0.06,-0.02,0.05,0.08
7.492883205413818,-0.05,-0.02,0.05,0.07
7.502888202667236,-0.05,-0.02,0.07,0.08
7.51278018951416,-0.05,-0.02,0.06,0.08
7.5229151248931885,-0.07,-0.02,0.05,0.08
7.534882068634033,-0.05,-0.02,0.06,0.08
7.544740200042725,-0.05,-0.01,0.08,0.09
7.556562185287476,-0.05,-0.02,0.06,0.08
7.562556266784668,-0.05,-0.03,0.05,0.07
7.576420307159424,-0.04,-0.02,0.06,0.07
7.58291220664978,-0.05,-0.02,0.07,0.08
7.596091270446777,-0.07,-0.01,0.05,0.08
7.604923248291016,-0.07,-0.02,0.05,0.08
7.61221718788147,-0.05,-0.02,0.06,0.08
7.6220831871032715,-0.05,-0.02,0.06,0.08
7.634000301361084,-0.05,-0.02,0.05,0.07
7.6436991691589355,-0.05,-0.02,0.06,0.08
7.655738115310669,-0.05,-0.02,0.07,0.08
7.661811113357544,-0.05,-0.01,0.07,0.08
7.671852111816406,-0.05,-0.01,0.06,0.07
7.683878183364868,-0.05,-0.02,0.05,0.07
7.691389083862305,-0.05,-0.02,0.07,0.08
7.701554298400879,-0.06,-0.03,0.06,0.09
7.71152400970459,-0.06,-0.03,0.05,0.08
7.721616268157959,-0.04,-0.02,0.06,0.07
7.733630180358887,-0.05,-0.02,0.07,0.08
7.743462085723877,-0.06,-0.01,0.06,0.08
7.756155014038086,-0.05,-0.02,0.05,0.07
7.760890007019043,-0.05,-0.02,0.07,0.08
7.776295185089111,-0.05,-0.01,0.06,0.07
7.781137228012085,-0.06,-0.02,0.06,0.08
7.796058177947998,-0.04,-0.02,0.06,0.07
7.805883169174194,-0.05,-0.03,0.07,0.09
7.810707092285156,-0.06,-0.03,0.05,0.08
7.825965166091919,-0.07,-0.03,0.05,0.09
7.83103609085083,-0.06,-0.02,0.05,0.08
7.846607208251953,-0.04,-0.02,0.06,0.07
7.857880115509033,-0.05,-0.01,0.07,0.08
7.860288143157959,-0.04,-0.01,0.06,0.07
7.8770670890808105,-0.05,-0.02,0.05,0.07
7.880649089813232,-0.06,-0.02,0.06,0.08
7.89498233795166,-0.06,-0.02,0.06,0.08
7.905533313751221,-0.05,-0.01,0.06,0.07
7.9101011753082275,-0.05,-0.02,0.06,0.08
7.9202470779418945,-0.04,-0.01,0.05,0.06
7.9303882122039795,-0.04,-0.02,0.06,0.07
7.94254207611084,-0.05,-0.02,0.06,0.08
7.959684133529663,-0.05,-0.02,0.06,0.08
7.9605393409729,-0.06,-0.02,0.06,0.08
7.969847202301025,-0.05,-0.03,0.05,0.07
7.980079174041748,-0.06,-0.02,0.05,0.08
7.9923741817474365,-0.05,-0.01,0.06,0.07
8.002490043640137,-0.05,-0.02,0.06,0.08
8.00908899307251,-0.05,-0.02,0.05,0.07
8.019617080688477,-0.05,-0.02,0.04,0.06
8.026609182357788,-0.05,-0.02,0.06,0.08
8.039602279663086,-0.04,-0.03,0.06,0.07
8.052117347717285,-0.06,-0.02,0.06,0.08
8.05599308013916,-0.05,-0.02,0.06,0.08
8.066773176193237,-0.05,-0.02,0.07,0.08
8.07660722732544,-0.05,-0.02,0.06,0.08
8.089839220046997,-0.05,-0.02,0.05,0.07
8.100658178329468,-0.06,-0.03,0.05,0.08
8.106377124786377,-0.06,-0.02,0.06,0.08
8.116175174713135,-0.06,-0.02,0.05,0.08
8.127080202102661,-0.06,-0.02,0.05,0.08
8.138838291168213,-0.04,-0.02,0.06,0.07
8.152620315551758,-0.04,-0.02,0.07,0.08
8.155578136444092,-0.06,-0.02,0.06,0.08
8.165731191635132,-0.06,-0.02,0.06,0.08
8.178065299987793,-0.05,-0.01,0.06,0.07
8.187989234924316,-0.05,-0.02,0.06,0.08
8.199588298797607,-0.05,-0.02,0.07,0.08
8.205909252166748,-0.05,-0.02,0.06,0.08
8.215350151062012,-0.05,-0.02,0.06,0.08
8.225730180740356,-0.06,-0.02,0.05,0.08
8.23822021484375,-0.05,-0.03,0.05,0.07
8.248668193817139,-0.05,-0.02,0.06,0.08
8.255259990692139,-0.05,-0.01,0.06,0.07
8.26517915725708,-0.05,-0.02,0.07,0.08
8.277165174484253,-0.05,-0.01,0.06,0.07
8.286785125732422,-0.05,-0.02,0.05,0.07
8.298867225646973,-0.05,-0.02,0.06,0.08
8.304899215698242,-0.05,-0.02,0.05,0.07
8.315060138702393,-0.06,-0.02,0.05,0.08
8.328503131866455,-0.05,-0.02,0.06,0.08
8.335830211639404,-0.05,-0.02,0.06,0.08
8.345173120498657,-0.04,-0.01,0.06,0.07
8.354233264923096,-0.06,-0.02,0.06,0.08
8.366446018218994,-0.06,-0.02,0.04,0.07
8.37398624420166,-0.06,-0.02,0.05,0.08
8.386282205581665,-0.05,-0.02,0.05,0.07
8.395762205123901,-0.04,-0.02,0.06,0.07
8.404023170471191,-0.05,-0.02,0.07,0.08
8.414306163787842,-0.06,-0.02,0.07,0.09
8.426604270935059,-0.06,-0.03,0.06,0.09
8.43577527999878,-0.05,-0.01,0.05,0.07
8.447214126586914,-0.04,0.0,0.05,0.06
8.453579187393188,-0.05,-0.01,0.05,0.07
8.463694095611572,-0.05,-0.01,0.05,0.07
8.475654125213623,-0.06,-0.02,0.05,0.08
8.485537052154541,-0.06,-0.03,0.06,0.09
8.498951196670532,-0.05,-0.02,0.06,0.08
8.50343918800354,-0.05,-0.01,0.05,0.07
8.513269186019897,-0.06,-0.03,0.05,0.08
8.525569200515747,-0.05,-0.02,0.05,0.07
8.534730195999146,-0.05,-0.02,0.07,0.08
8.546301126480103,-0.05,-0.02,0.06,0.08
8.55305814743042,-0.05,-0.03,0.05,0.07
8.563192129135132,-0.05,-0.03,0.06,0.08
8.57557725906372,-0.05,-0.02,0.05,0.07
8.587635040283203,-0.05,-0.03,0.05,0.07
8.59764313697815,-0.05,-0.02,0.05,0.07
8.605229139328003,-0.05,-0.02,0.05,0.07
8.615187168121338,-0.05,-0.02,0.05,0.07
8.627373218536377,-0.05,-0.02,0.06,0.08
8.636910200119019,-0.05,-0.03,0.06,0.08
8.651458263397217,-0.05,-0.02,0.06,0.08
8.65448522567749,-0.05,-0.02,0.06,0.08
8.66494607925415,-0.05,-0.02,0.06,0.08
8.678101062774658,-0.04,-0.03,0.05,0.07
8.684967041015625,-0.05,-0.03,0.06,0.08
8.694480180740356,-0.05,-0.03,0.06,0.08
8.704552173614502,-0.05,-0.01,0.06,0.07
8.714349269866943,-0.05,-0.02,0.06,0.08
8.726092338562012,-0.04,-0.01,0.07,0.08
8.736523151397705,-0.05,-0.01,0.06,0.07
8.750097274780273,-0.05,-0.02,0.05,0.07
8.754110336303711,-0.04,-0.02,0.05,0.06
8.764386177062988,-0.05,-0.03,0.06,0.08
8.774314165115356,-0.06,-0.03,0.06,0.09
8.787213325500488,-0.06,-0.02,0.06,0.08
8.798883199691772,-0.05,-0.01,0.06,0.07
8.803584098815918,-0.05,-0.02,0.06,0.08
8.813568115234375,-0.05,-0.02,0.05,0.07
8.823645114898682,-0.05,-0.01,0.05,0.07
8.836043119430542,-0.06,-0.03,0.07,0.09
8.846312999725342,-0.05,-0.02,0.06,0.08
8.853382110595703,-0.05,-0.02,0.06,0.08
8.863554000854492,-0.05,-0.02,0.04,0.06
8.87496018409729,-0.05,-0.02,0.05,0.07
8.885561227798462,-0.05,-0.02,0.06,0.08
8.897218227386475,-0.05,-0.03,0.05,0.07
8.903067111968994,-0.05,-0.02,0.05,0.07
8.913187026977539,-0.05,-0.01,0.05,0.07
8.925334215164185,-0.04,-0.02,0.06,0.07
8.934507131576538,-0.05,-0.02,0.05,0.07
8.946924209594727,-0.05,-0.02,0.05,0.07
8.952685117721558,-0.04,-0.02,0.06,0.07
8.963081121444702,-0.06,-0.02,0.05,0.08
8.974999189376831,-0.05,-0.01,0.06,0.07
8.984469175338745,-0.05,-0.02,0.05,0.07
8.995307207107544,-0.04,-0.02,0.05,0.06
9.002350330352783,-0.05,-0.02,0.05,0.07
9.013079166412354,-0.06,-0.01,0.06,0.08
9.024198055267334,-0.06,-0.03,0.06,0.09
9.032892227172852,-0.05,-0.02,0.05,0.07
9.042718172073364,-0.05,-0.02,0.05,0.07
9.052463054656982,-0.04,-0.02,0.05,0.06
9.06387710571289,-0.05,-0.02,0.05,0.07
9.073593139648438,-0.06,-0.02,0.04,0.07
9.083646297454834,-0.06,-0.01,0.04,0.07
9.096221208572388,-0.05,-0.01,0.05,0.07
9.101609230041504,-0.05,-0.01,0.06,0.07
9.112157344818115,-0.05,-0.03,0.07,0.09
9.12432312965393,-0.05,-0.02,0.06,0.08
9.131830215454102,-0.05,-0.01,0.07,0.08
9.141212224960327,-0.05,-0.01,0.06,0.07
9.15186619758606,-0.05,0.0,0.04,0.06
9.163232326507568,-0.04,-0.01,0.06,0.07
9.17134714126587,-0.05,-0.02,0.06,0.08
9.18393611907959,-0.06,-0.02,0.05,0.08
9.194751262664795,-0.06,-0.02,0.06,0.08
9.201250076293945,-0.05,-0.02,0.05,0.07
9.210937023162842,-0.05,-0.01,0.05,0.07
9.222872257232666,-0.05,0.0,0.05,0.07
9.231884002685547,-0.05,0.0,0.05,0.07
9.243940114974976,-0.05,-0.01,0.05,0.07
9.250688076019287,-0.06,-0.02,0.05,0.08
9.26115608215332,-0.05,-0.02,0.04,0.06
9.273867130279541,-0.05,-0.02,0.05,0.07
9.282543182373047,-0.05,-0.01,0.06,0.07
9.293862342834473,-0.06,-0.03,0.06,0.09
9.300312995910645,-0.06,-0.02,0.05,0.08
9.31067419052124,-0.06,-0.01,0.05,0.07
9.322932243347168,-0.04,-0.01,0.06,0.07
9.331904172897339,-0.05,-0.01,0.05,0.07
9.340619087219238,-0.05,-0.02,0.05,0.07
9.34975814819336,-0.05,-0.02,0.05,0.07
9.360190153121948,-0.04,-0.01,0.05,0.06
9.372757196426392,-0.05,-0.02,0.05,0.07
9.379842281341553,-0.05,-0.01,0.05,0.07
9.389426231384277,-0.05,-0.02,0.05,0.07
9.400022029876709,-0.05,-0.02,0.06,0.08
9.412439346313477,-0.06,-0.03,0.05,0.08
9.421795129776001,-0.05,-0.01,0.05,0.07
9.429174184799194,-0.05,-0.01,0.05,0.07
9.439236164093018,-0.05,-0.01,0.04,0.06
9.449397087097168,-0.05,-0.01,0.04,0.06
9.461215019226074,-0.05,-0.01,0.06,0.07
9.471802234649658,-0.05,-0.02,0.06,0.08
9.480841159820557,-0.06,-0.02,0.05,0.08
9.492026329040527,-0.05,-0.02,0.04,0.06
9.49884033203125,-0.04,-0.01,0.05,0.06
9.509178161621094,-0.05,-0.01,0.05,0.07
9.521460056304932,-0.05,-0.01,0.04,0.06
9.530834197998047,-0.06,-0.02,0.06,0.08
9.541300296783447,-0.06,-0.02,0.05,0.08
9.548748016357422,-0.05,-0.01,0.04,0.06
9.55942416191101,-0.05,-0.02,0.06,0.08
9.571767330169678,-0.04,-0.02,0.05,0.06
9.578304290771484,-0.04,-0.02,0.05,0.06
9.588306188583374,-0.05,-0.01,0.06,0.07
9.598517179489136,-0.04,-0.02,0.05,0.06
9.60848331451416,-0.05,-0.01,0.05,0.07
9.620403289794922,-0.05,-0.02,0.05,0.07
9.628166198730469,-0.05,-0.01,0.05,0.07
9.637749195098877,-0.05,-0.03,0.05,0.07
9.647930145263672,-0.05,-0.01,0.05,0.07
9.659677028656006,-0.05,-0.02,0.05,0.07
9.66836404800415,-0.05,-0.02,0.05,0.07
9.680001258850098,-0.05,-0.01,0.06,0.07
9.69185209274292,-0.05,-0.01,0.04,0.06
9.697654247283936,-0.05,-0.01,0.05,0.07
9.707410335540771,-0.05,-0.01,0.05,0.07
9.719863176345825,-0.05,-0.01,0.06,0.07
9.729165077209473,-0.05,-0.01,0.05,0.07
9.742012023925781,-0.05,-0.02,0.04,0.06
9.747440338134766,-0.06,-0.02,0.05,0.08
9.760070323944092,-0.05,-0.02,0.05,0.07
9.768896102905273,-0.05,-0.01,0.05,0.07
9.77724814414978,-0.04,-0.01,0.06,0.07
9.786971092224121,-0.04,-0.02,0.06,0.07
9.79704213142395,-0.05,-0.02,0.05,0.07
9.807143211364746,-0.06,-0.01,0.04,0.07
9.819092273712158,-0.06,-0.01,0.05,0.07
9.826717138290405,-0.06,-0.02,0.05,0.08
9.836603164672852,-0.06,-0.01,0.06,0.08
9.846588134765625,-0.05,-0.02,0.06,0.08
9.85853099822998,-0.04,-0.02,0.06,0.07
9.868311166763306,-0.04,-0.01,0.05,0.06
9.876244068145752,-0.06,-0.02,0.05,0.08
9.886300086975098,-0.06,0.0,0.06,0.08
9.896504163742065,-0.05,-0.01,0.05,0.07
9.907122135162354,-0.05,-0.02,0.05,0.07
9.916398048400879,-0.05,-0.01,0.05,0.07
9.92811632156372,-0.04,-0.01,0.04,0.05
9.93953800201416,-0.05,-0.02,0.05,0.07
9.945518016815186,-0.05,-0.02,0.05,0.07
9.955611228942871,-0.05,-0.01,0.05,0.07
9.967824220657349,-0.06,-0.02,0.05,0.08
9.975510120391846,-0.06,-0.01,0.05,0.07
9.985429286956787,-0.04,0.0,0.06,0.07
9.99567699432373,-0.03,-0.01,0.06,0.06
10.007544994354248,-0.04,-0.01,0.04,0.05
10.0156991481781,-0.06,-0.02,0.04,0.07
10.027605056762695,-0.06,-0.02,0.05,0.08
10.038283348083496,-0.04,-0.02,0.04,0.06
10.0452241897583,-0.04,-0.02,0.07,0.08
10.060327053070068,-0.05,-0.01,0.06,0.07
10.065636157989502,-0.06,-0.02,0.04,0.07
10.078360080718994,-0.07,-0.01,0.05,0.08
10.088926315307617,-0.06,-0.01,0.04,0.07
10.094968318939209,-0.04,-0.02,0.05,0.06
10.109914302825928,-0.04,-0.02,0.07,0.08
10.115058183670044,-0.05,-0.01,0.07,0.08
10.12674331665039,-0.06,-0.02,0.05,0.08
10.14049220085144,-0.06,-0.01,0.05,0.07
10.144659042358398,-0.04,0.0,0.05,0.06
10.16045331954956,-0.04,-0.01,0.04,0.05
10.16441011428833,-0.05,0.0,0.03,0.05
10.177998065948486,-0.05,-0.01,0.05,0.07
10.189265251159668,-0.05,-0.02,0.06,0.08
10.19413709640503,-0.05,-0.01,0.04,0.06
10.209885120391846,-0.06,-0.02,0.03,0.06
10.214473247528076,-0.05,-0.01,0.06,0.07
10.22997522354126,-0.04,0.0,0.04,0.05
10.23948621749878,-0.05,-0.01,0.05,0.07
10.2436842918396,-0.05,-0.01,0.05,0.07
10.253581047058105,-0.05,-0.01,0.05,0.07
10.264003276824951,-0.05,-0.02,0.05,0.07
10.275276184082031,-0.06,-0.01,0.05,0.07
10.28780221939087,-0.04,-0.01,0.05,0.06
10.293439149856567,-0.04,-0.01,0.04,0.05
10.303357124328613,-0.05,-0.02,0.05,0.07
10.313899040222168,-0.06,-0.01,0.06,0.08
10.324069023132324,-0.06,-0.01,0.06,0.08
10.333729267120361,-0.06,-0.02,0.05,0.08
10.34315824508667,-0.05,-0.01,0.05,0.07
10.353021144866943,-0.05,-0.01,0.05,0.07
10.365128993988037,-0.06,-0.01,0.04,0.07
10.375033140182495,-0.05,-0.02,0.05,0.07
10.387689113616943,-0.05,-0.01,0.05,0.07
10.392755031585693,-0.06,-0.01,0.05,0.07
10.40250301361084,-0.05,-0.02,0.05,0.07
10.41399621963501,-0.05,-0.01,0.05,0.07
10.42349100112915,-0.05,-0.01,0.05,0.07
10.435909271240234,-0.05,-0.01,0.05,0.07
10.442565202713013,-0.05,-0.01,0.04,0.06
10.452087163925171,-0.05,-0.01,0.05,0.07
10.464513301849365,-0.04,-0.02,0.05,0.06
10.473902225494385,-0.05,-0.02,0.05,0.07
10.486334323883057,-0.06,-0.01,0.05,0.07
10.491955280303955,-0.06,-0.01,0.04,0.07
10.501798152923584,-0.06,-0.02,0.04,0.07
10.512324333190918,-0.05,-0.01,0.04,0.06
10.52300214767456,-0.05,-0.02,0.04,0.06
10.534294128417969,-0.05,-0.01,0.04,0.06
10.541787147521973,-0.05,-0.01,0.05,0.07
10.55156421661377,-0.05,-0.02,0.06,0.08
10.56361722946167,-0.06,-0.02,0.06,0.08
10.573084115982056,-0.06,-0.01,0.05,0.07
10.584979057312012,-0.05,-0.01,0.04,0.06
10.591280221939087,-0.04,-0.02,0.04,0.06
10.601155281066895,-0.05,-0.01,0.04,0.06
10.611573219299316,-0.05,-0.01,0.05,0.07
10.623629093170166,-0.04,-0.01,0.05,0.06
10.634535312652588,-0.05,0.0,0.04,0.06
10.641247272491455,-0.06,-0.02,0.05,0.08
10.65092420578003,-0.06,-0.01,0.04,0.07
10.662986278533936,-0.05,-0.01,0.04,0.06
10.670330047607422,-0.05,-0.01,0.04,0.06
10.680752277374268,-0.05,-0.01,0.04,0.06
10.690951347351074,-0.05,-0.01,0.05,0.07
10.703402042388916,-0.04,-0.01,0.05,0.06
10.71240234375,-0.06,-0.01,0.05,0.07
10.721991062164307,-0.06,-0.01,0.04,0.07
10.732177257537842,-0.05,-0.01,0.04,0.06
10.740257263183594,-0.04,-0.01,0.05,0.06
10.750487327575684,-0.05,-0.01,0.05,0.07
10.7621750831604,-0.05,-0.01,0.04,0.06
10.772123336791992,-0.06,-0.01,0.04,0.07
10.783244132995605,-0.07,-0.01,0.04,0.08
10.789929151535034,-0.06,-0.01,0.04,0.07
10.799813270568848,-0.04,-0.01,0.04,0.05
10.81193733215332,-0.04,-0.01,0.05,0.06
10.819704055786133,-0.04,-0.01,0.04,0.05
10.829922199249268,-0.05,-0.01,0.05,0.07
10.839422225952148,-0.05,-0.01,0.06,0.07
10.850011110305786,-0.06,-0.01,0.04,0.07
10.860756158828735,-0.06,-0.01,0.04,0.07
10.87200403213501,-0.05,-0.02,0.04,0.06
10.88325023651123,-0.05,-0.02,0.04,0.06
10.889029026031494,-0.05,-0.02,0.04,0.06
10.899717330932617,-0.06,-0.01,0.05,0.07
10.911159038543701,-0.07,-0.01,0.04,0.08
10.91929817199707,-0.05,-0.02,0.03,0.06
10.92886209487915,-0.04,-0.02,0.07,0.08
10.938809156417847,-0.06,0.0,0.06,0.08
10.949072122573853,-0.07,-0.01,0.02,0.07
10.960884094238281,-0.06,-0.01,0.05,0.07
10.9690842628479,-0.05,-0.02,0.04,0.06
10.978999137878418,-0.04,-0.02,0.02,0.04
10.988678216934204,-0.05,-0.01,0.07,0.08
10.998878002166748,-0.06,-0.02,0.06,0.08
11.010379314422607,-0.06,-0.02,0.03,0.06
11.018578052520752,-0.04,-0.01,0.05,0.06
11.02838921546936,-0.03,0.0,0.06,0.06
11.039186000823975,-0.05,-0.01,0.06,0.07
11.048376083374023,-0.06,-0.01,0.04,0.07
11.060060024261475,-0.06,-0.02,0.06,0.08
11.070801258087158,-0.05,-0.02,0.04,0.06
11.083651065826416,-0.05,-0.01,0.04,0.06
11.087861061096191,-0.06,-0.01,0.05,0.07
11.097848176956177,-0.06,-0.01,0.04,0.07
11.110098123550415,-0.03,0.0,0.05,0.05
11.119758129119873,-0.04,0.0,0.04,0.05
11.130614280700684,-0.05,-0.01,0.05,0.07
11.137482166290283,-0.06,-0.01,0.05,0.07
11.14774227142334,-0.05,-0.01,0.05,0.07
11.158496141433716,-0.05,-0.01,0.05,0.07
11.170090198516846,-0.05,-0.01,0.04,0.06
11.183775186538696,-0.06,-0.01,0.04,0.07
11.186899185180664,-0.06,-0.01,0.03,0.06
11.197250127792358,-0.05,-0.01,0.05,0.07
11.208140134811401,-0.05,0.0,0.05,0.07
11.217832088470459,-0.05,0.0,0.05,0.07
11.23191213607788,-0.04,0.0,0.04,0.05
11.236769199371338,-0.05,0.0,0.04,0.06
11.24693512916565,-0.06,-0.01,0.04,0.07
11.258759021759033,-0.05,-0.02,0.04,0.06
11.268113136291504,-0.05,-0.01,0.04,0.06
11.280764102935791,-0.05,-0.01,0.04,0.06
11.286403179168701,-0.05,-0.02,0.04,0.06
11.296447277069092,-0.05,-0.01,0.04,0.06
11.30855131149292,-0.05,0.0,0.06,0.07
11.316116333007812,-0.05,0.0,0.05,0.07
11.32620906829834,-0.05,-0.01,0.04,0.06
11.33611512184143,-0.05,-0.01,0.06,0.07
11.348229169845581,-0.05,-0.01,0.04,0.06
11.357823133468628,-0.05,-0.02,0.05,0.07
11.368313312530518,-0.06,-0.01,0.06,0.08
11.382219314575195,-0.06,-0.01,0.04,0.07
11.385907173156738,-0.05,-0.02,0.04,0.06
11.395677089691162,-0.05,0.0,0.04,0.06
11.405754089355469,-0.05,-0.01,0.04,0.06
11.4169762134552,-0.05,-0.01,0.04,0.06
11.430351257324219,-0.04,-0.01,0.05,0.06
11.4356369972229,-0.05,0.0,0.05,0.07
11.445538997650146,-0.05,-0.01,0.04,0.06
11.455442190170288,-0.05,-0.01,0.05,0.07
11.467204093933105,-0.06,-0.01,0.05,0.07
11.480488300323486,-0.06,-0.01,0.03,0.06
11.484752178192139,-0.05,-0.01,0.03,0.05
11.495256185531616,-0.04,0.0,0.04,0.05
11.505108118057251,-0.05,0.0,0.04,0.06
11.517072200775146,-0.06,-0.01,0.04,0.07
11.529704093933105,-0.05,-0.01,0.04,0.06
11.534675121307373,-0.05,-0.01,0.05,0.07
11.54463005065918,-0.05,-0.01,0.05,0.07
11.554995059967041,-0.05,-0.02,0.03,0.06
11.567498207092285,-0.04,0.0,0.05,0.06
11.580145120620728,-0.06,-0.01,0.05,0.07
11.584055185317993,-0.06,-0.01,0.02,0.06
11.594129085540771,-0.05,-0.01,0.04,0.06
11.604359149932861,-0.05,-0.01,0.08,0.09
11.615781307220459,-0.05,-0.01,0.02,0.05
11.626667022705078,-0.05,-0.01,0.05,0.07
11.633878231048584,-0.05,0.01,0.06,0.07
11.643908023834229,-0.06,0.0,0.03,0.06
11.656833171844482,-0.05,-0.01,0.04,0.06
11.66374921798706,-0.04,-0.01,0.04,0.05
11.67359209060669,-0.03,-0.01,0.05,0.05
11.683727264404297,-0.05,-0.02,0.03,0.06
11.69548225402832,-0.05,-0.02,0.04,0.06
11.703910112380981,-0.05,0.0,0.05,0.07
11.7158522605896,-0.05,-0.02,0.04,0.06
11.727554321289062,-0.05,-0.02,0.05,0.07
11.733273029327393,-0.05,-0.01,0.03,0.05
11.742985248565674,-0.05,-0.01,0.05,0.07
11.753350257873535,-0.05,0.0,0.04,0.06
11.76548719406128,-0.07,-0.01,0.04,0.08
11.780166149139404,-0.05,-0.01,0.03,0.05
11.78273320198059,-0.05,-0.02,0.03,0.06
11.792676210403442,-0.05,-0.02,0.06,0.08
11.803016185760498,-0.05,-0.01,0.02,0.05
11.814557075500488,-0.05,-0.01,0.04,0.06
11.827287197113037,-0.05,-0.01,0.04,0.06
11.832375049591064,-0.05,0.0,0.05,0.07
11.8425612449646,-0.05,0.0,0.04,0.06
11.854791164398193,-0.05,-0.02,0.04,0.06
11.86424732208252,-0.05,-0.02,0.05,0.07
11.877830028533936,-0.05,-0.01,0.03,0.05
11.882282257080078,-0.05,-0.01,0.04,0.06
11.892235279083252,-0.05,-0.01,0.04,0.06
11.902202129364014,-0.05,-0.01,0.04,0.06
11.914316177368164,-0.05,0.0,0.04,0.06
11.929737091064453,-0.06,0.0,0.04,0.07
11.931628227233887,-0.05,0.0,0.04,0.06
11.941798210144043,-0.05,-0.01,0.05,0.07
11.954983234405518,-0.06,0.0,0.03,0.06
11.961650133132935,-0.06,-0.02,0.02,0.06
11.971509218215942,-0.05,-0.02,0.04,0.06
11.981709003448486,-0.06,-0.01,0.04,0.07
11.99420714378357,-0.05,-0.01,0.03,0.05
12.00121021270752,-0.04,-0.01,0.03,0.05
12.01383113861084,-0.04,0.0,0.03,0.05
12.026352167129517,-0.03,-0.01,0.04,0.05
12.028554201126099,-0.05,0.0,0.03,0.05
12.038698196411133,-0.05,-0.01,0.04,0.06
12.048802137374878,-0.05,-0.01,0.03,0.05
12.06062912940979,-0.06,-0.01,0.02,0.06
12.07145619392395,-0.05,-0.01,0.03,0.05
12.078294277191162,-0.05,-0.01,0.04,0.06
12.094571113586426,-0.05,-0.01,0.03,0.05
12.098031997680664,-0.05,0.0,0.04,0.06
12.112870216369629,-0.06,-0.01,0.03,0.06
12.122552156448364,-0.06,0.0,0.03,0.06
12.128188133239746,-0.05,0.0,0.04,0.06
12.138331174850464,-0.04,-0.01,0.04,0.05
12.149819135665894,-0.04,0.0,0.04,0.05
12.158173084259033,-0.06,-0.01,0.03,0.06
12.167535305023193,-0.06,-0.01,0.03,0.06
12.177715301513672,-0.05,-0.02,0.03,0.06
12.187770128250122,-0.04,-0.01,0.04,0.05
12.199515342712402,-0.04,0.0,0.04,0.05
12.209189176559448,-0.05,0.0,0.04,0.06
12.22264814376831,-0.05,-0.01,0.03,0.05
12.227187156677246,-0.05,0.0,0.04,0.06
12.237166166305542,-0.05,0.0,0.03,0.05
12.247541189193726,-0.05,-0.01,0.02,0.05
12.25914216041565,-0.06,-0.01,0.04,0.07
12.27213430404663,-0.05,-0.01,0.04,0.06
12.276555061340332,-0.05,-0.01,0.04,0.06
12.286736011505127,-0.06,-0.01,0.04,0.07
12.298843145370483,-0.05,-0.01,0.04,0.06
12.308364152908325,-0.05,0.0,0.04,0.06
12.319594144821167,-0.05,-0.01,0.04,0.06
12.326653003692627,-0.05,-0.01,0.03,0.05
12.34036111831665,-0.05,-0.01,0.05,0.07
12.346327304840088,-0.05,-0.01,0.04,0.06
12.356466293334961,-0.06,-0.02,0.04,0.07
12.366322994232178,-0.05,-0.01,0.03,0.05
12.376073122024536,-0.05,0.0,0.03,0.05
12.386295318603516,-0.05,0.0,0.04,0.06
12.398430347442627,-0.06,0.0,0.04,0.07
12.40750503540039,-0.05,0.0,0.04,0.06
12.420515060424805,-0.04,-0.01,0.05,0.06
12.425843238830566,-0.05,0.0,0.04,0.06
12.442905187606812,-0.06,0.0,0.03,0.06
12.44559907913208,-0.05,-0.02,0.04,0.06
12.460791110992432,-0.06,-0.01,0.05,0.07
12.468637228012085,-0.05,-0.01,0.04,0.06
12.475083112716675,-0.05,-0.01,0.04,0.06
12.485717296600342,-0.05,-0.01,0.05,0.07
12.495877265930176,-0.06,-0.01,0.04,0.07
12.507654190063477,-0.06,0.0,0.03,0.06
12.517987251281738,-0.06,0.0,0.05,0.07
12.525213241577148,-0.05,0.0,0.04,0.06
12.535283088684082,-0.05,0.0,0.04,0.06
12.547941207885742,-0.06,-0.01,0.03,0.06
12.557955265045166,-0.05,-0.01,0.03,0.05
12.568266153335571,-0.05,-0.02,0.03,0.06
12.574875116348267,-0.05,-0.01,0.03,0.05
12.585092067718506,-0.05,0.0,0.03,0.05
12.598074197769165,-0.05,0.0,0.04,0.06
12.606553077697754,-0.05,0.0,0.04,0.06
12.61816120147705,-0.05,-0.01,0.03,0.05
12.62588119506836,-0.05,-0.01,0.04,0.06
12.636138200759888,-0.05,-0.01,0.03,0.05
12.648380279541016,-0.05,-0.02,0.04,0.06
12.65567421913147,-0.05,-0.01,0.03,0.05
12.665305137634277,-0.05,-0.01,0.04,0.06
12.675653219223022,-0.05,-0.01,0.03,0.05
12.685524225234985,-0.05,-0.01,0.02,0.05
12.697816133499146,-0.05,-0.01,0.03,0.05
12.706226110458374,-0.05,-0.01,0.03,0.05
12.718969345092773,-0.05,-0.01,0.04,0.06
12.724889278411865,-0.05,-0.01,0.02,0.05
12.735380172729492,-0.05,0.0,0.03,0.05
12.747554302215576,-0.05,-0.01,0.04,0.06
12.756883144378662,-0.04,-0.01,0.03,0.05
12.769042015075684,-0.05,-0.02,0.04,0.06
12.774847030639648,-0.05,-0.01,0.04,0.06
12.784796237945557,-0.05,0.0,0.03,0.05
12.79465913772583,-0.05,-0.01,0.04,0.06
12.805957317352295,-0.05,-0.01,0.04,0.06
12.818556308746338,-0.05,-0.01,0.04,0.06
12.824656009674072,-0.05,0.0,0.03,0.05
12.83626914024353,-0.05,0.0,0.03,0.05
12.846819162368774,-0.04,-0.01,0.04,0.05
12.854323148727417,-0.05,-0.01,0.04,0.06
12.864037036895752,-0.06,-0.01,0.03,0.06
12.874281167984009,-0.05,-0.01,0.04,0.06
12.885647296905518,-0.05,-0.01,0.04,0.06
12.895630121231079,-0.05,-0.01,0.03,0.05
12.906475067138672,-0.06,-0.01,0.04,0.07
12.918333053588867,-0.05,0.0,0.03,0.05
12.923717021942139,-0.04,-0.01,0.04,0.05
12.933925151824951,-0.05,-0.01,0.03,0.05
12.945801258087158,-0.06,-0.01,0.03,0.06
12.955815315246582,-0.06,-0.01,0.04,0.07
12.968523025512695,-0.05,-0.01,0.03,0.05
12.973124027252197,-0.04,-0.01,0.03,0.05
12.983235120773315,-0.04,-0.01,0.05,0.06
12.993743181228638,-0.05,-0.01,0.03,0.05
13.00606632232666,-0.06,-0.01,0.03,0.06
13.01854133605957,-0.05,-0.01,0.03,0.05
13.02259612083435,-0.05,-0.01,0.03,0.05
13.033125162124634,-0.06,-0.01,0.03,0.06
13.04319429397583,-0.06,-0.01,0.04,0.07
13.055004119873047,-0.06,-0.02,0.04,0.07
13.067091226577759,-0.04,-0.01,0.04,0.05
13.07265329360962,-0.05,0.01,0.04,0.06
13.082736015319824,-0.05,0.0,0.04,0.06
13.093820095062256,-0.05,0.0,0.04,0.06
13.104020118713379,-0.05,0.0,0.04,0.06
13.116818189620972,-0.05,-0.01,0.03,0.05
13.122074127197266,-0.05,-0.01,0.03,0.05
13.132610321044922,-0.06,-0.01,0.02,0.06
13.14477825164795,-0.05,-0.02,0.03,0.06
13.154787063598633,-0.05,0.0,0.03,0.05
13.166869163513184,-0.05,0.0,0.03,0.05
13.172150135040283,-0.05,-0.01,0.04,0.06
13.182021141052246,-0.05,0.0,0.05,0.07
13.192154169082642,-0.05,-0.01,0.04,0.06
13.204963207244873,-0.05,-0.01,0.03,0.05
13.21523118019104,-0.06,-0.01,0.03,0.06
13.221716165542603,-0.05,0.0,0.03,0.05
13.23166012763977,-0.05,0.0,0.04,0.06
13.243579149246216,-0.05,-0.01,0.02,0.05
13.253496170043945,-0.05,-0.01,0.03,0.05
13.263440132141113,-0.06,-0.01,0.04,0.07
13.271359205245972,-0.04,-0.01,0.03,0.05
13.281816005706787,-0.04,0.0,0.04,0.05
13.293061256408691,-0.04,0.0,0.03,0.05
13.30374002456665,-0.05,0.0,0.04,0.06
13.317752122879028,-0.06,-0.02,0.03,0.06
13.320840120315552,-0.05,-0.01,0.03,0.05
13.33086109161377,-0.05,-0.01,0.03,0.05
13.341899156570435,-0.05,-0.01,0.03,0.05
13.352163314819336,-0.05,-0.01,0.03,0.05
13.365786075592041,-0.05,-0.01,0.04,0.06
13.370644092559814,-0.04,-0.01,0.03,0.05
13.380642175674438,-0.05,0.0,0.03,0.05
13.392784118652344,-0.06,-0.01,0.04,0.07
13.402056217193604,-0.05,-0.01,0.03,0.05
13.414876222610474,-0.04,-0.01,0.04,0.05
13.42033314704895,-0.05,0.0,0.03,0.05
13.430300235748291,-0.05,-0.01,0.02,0.05
13.44058609008789,-0.04,-0.01,0.03,0.05
13.452576160430908,-0.05,0.0,0.03,0.05
13.46427321434021,-0.05,-0.01,0.03,0.05
13.470004081726074,-0.06,-0.01,0.04,0.07
13.479942321777344,-0.05,-0.01,0.04,0.06
13.491766214370728,-0.06,-0.01,0.03,0.06
13.499901294708252,-0.05,-0.01,0.03,0.05
13.50978422164917,-0.04,0.0,0.04,0.05
13.519347190856934,-0.04,-0.01,0.04,0.05
13.52950119972229,-0.04,-0.01,0.03,0.05
13.54091215133667,-0.05,-0.01,0.02,0.05
13.551523208618164,-0.06,-0.01,0.03,0.06
13.562633037567139,-0.05,-0.01,0.03,0.05
13.569042205810547,-0.05,0.0,0.03,0.05
13.579361200332642,-0.04,-0.01,0.04,0.05
13.590396165847778,-0.05,-0.01,0.04,0.06
13.600048065185547,-0.05,-0.01,0.04,0.06
13.613619327545166,-0.05,-0.01,0.04,0.06
13.618674278259277,-0.06,-0.01,0.03,0.06
13.62897515296936,-0.06,0.0,0.03,0.06
13.641045093536377,-0.06,-0.01,0.03,0.06
13.650517225265503,-0.05,0.0,0.04,0.06
13.662979125976562,-0.05,-0.01,0.03,0.05
13.668541193008423,-0.05,0.0,0.04,0.06
13.67847204208374,-0.05,0.0,0.03,0.05
13.68866515159607,-0.06,0.0,0.03,0.06
13.699863195419312,-0.05,0.0,0.03,0.05
13.713019132614136,-0.04,-0.01,0.03,0.05
13.7178373336792,-0.04,0.0,0.03,0.05
13.72822117805481,-0.04,-0.01,0.03,0.05
13.738559246063232,-0.05,-0.01,0.04,0.06
13.750312328338623,-0.06,-0.02,0.03,0.06
13.761635303497314,-0.06,-0.01,0.04,0.07
13.767734050750732,-0.05,0.0,0.04,0.06
13.7779541015625,-0.05,-0.01,0.02,0.05
13.78951120376587,-0.05,-0.01,0.03,0.05
13.799501180648804,-0.05,0.0,0.04,0.06
13.809741020202637,-0.05,0.0,0.03,0.05
13.817443132400513,-0.05,-0.01,0.04,0.06
13.827710151672363,-0.05,-0.01,0.03,0.05
13.84050703048706,-0.06,0.0,0.03,0.06
13.849224090576172,-0.05,0.0,0.03,0.05
13.860766172409058,-0.05,-0.01,0.03,0.05
13.867079257965088,-0.05,-0.02,0.03,0.06
13.877151012420654,-0.05,-0.01,0.03,0.05
13.888936042785645,-0.05,0.0,0.03,0.05
13.898888111114502,-0.05,-0.01,0.03,0.05
13.910627126693726,-0.06,-0.01,0.04,0.07
13.916856288909912,-0.05,-0.01,0.03,0.05
13.926698207855225,-0.05,0.0,0.03,0.05
13.9380521774292,-0.05,0.0,0.03,0.05
13.948650121688843,-0.05,-0.01,0.03,0.05
13.964486122131348,-0.05,-0.01,0.03,0.05
13.966294288635254,-0.06,-0.01,0.03,0.06
13.976266145706177,-0.06,-0.01,0.03,0.06
13.988205194473267,-0.06,-0.01,0.02,0.06
13.996209144592285,-0.06,0.0,0.02,0.06
14.00603723526001,-0.04,-0.01,0.03,0.05
14.01648211479187,-0.05,-0.01,0.03,0.05
14.027384281158447,-0.05,-0.01,0.03,0.05
14.03740406036377,-0.05,-0.01,0.03,0.05
14.048416137695312,-0.05,0.0,0.04,0.06
14.065316200256348,-0.05,0.0,0.04,0.06
14.066291332244873,-0.05,-0.01,0.02,0.05
14.075448036193848,-0.05,-0.01,0.03,0.05
14.086063146591187,-0.04,-0.02,0.04,0.06
14.097837209701538,-0.05,0.0,0.04,0.06
14.109475135803223,-0.05,-0.01,0.02,0.05
14.115370273590088,-0.04,-0.01,0.03,0.05
14.12542200088501,-0.05,-0.01,0.03,0.05
14.135325193405151,-0.05,-0.01,0.03,0.05
14.147999286651611,-0.06,0.0,0.03,0.06
14.163387298583984,-0.05,-0.01,0.03,0.05
14.164994239807129,-0.05,-0.02,0.03,0.06
14.175133228302002,-0.05,-0.01,0.03,0.05
14.18489122390747,-0.05,-0.01,0.03,0.05
14.196912288665771,-0.05,0.0,0.03,0.05
14.211480140686035,-0.05,-0.01,0.04,0.06
14.214903116226196,-0.05,0.0,0.03,0.05
14.225855112075806,-0.05,0.0,0.03,0.05
14.234775066375732,-0.05,0.0,0.03,0.05
14.246257305145264,-0.05,-0.01,0.04,0.06
14.258840084075928,-0.05,-0.01,0.04,0.06
14.264324188232422,-0.05,-0.01,0.03,0.05
14.274389266967773,-0.06,-0.01,0.03,0.06
14.284802198410034,-0.05,-0.01,0.02,0.05
14.296166181564331,-0.05,-0.01,0.04,0.06
14.307475090026855,-0.04,-0.01,0.03,0.05
14.3141450881958,-0.05,0.0,0.03,0.05
14.323975086212158,-0.05,-0.01,0.03,0.05
14.336649179458618,-0.05,0.0,0.04,0.06
14.343576192855835,-0.05,0.0,0.04,0.06
14.353758335113525,-0.06,-0.01,0.03,0.06
14.363567113876343,-0.06,-0.01,0.03,0.06
14.375026226043701,-0.04,-0.02,0.03,0.05
14.386092185974121,-0.04,0.0,0.04,0.05
14.39506220817566,-0.04,-0.01,0.03,0.05
14.406902313232422,-0.05,-0.01,0.04,0.06
14.413324117660522,-0.06,-0.01,0.04,0.07
14.423704147338867,-0.08,-0.01,0.02,0.08
14.435579299926758,-0.05,-0.01,0.01,0.05
14.443044185638428,0.0,0.0,0.05,0.05
14.452960014343262,-0.04,-0.01,0.08,0.09
14.463050127029419,-0.08,-0.01,0.0,0.08
14.472562313079834,-0.08,-0.01,0.01,0.08
14.48534107208252,-0.05,0.0,0.05,0.07
14.492703199386597,-0.03,0.0,0.01,0.03
14.502501010894775,-0.03,-0.02,0.03,0.04
14.512811183929443,-0.05,0.0,0.05,0.07
14.522631168365479,-0.06,-0.02,0.03,0.06
14.535028219223022,-0.05,-0.01,0.02,0.05
14.542463302612305,-0.03,0.0,0.04,0.05
14.552069187164307,-0.04,0.0,0.04,0.05
14.562402248382568,-0.06,-0.01,0.02,0.06
14.572748184204102,-0.07,-0.01,0.03,0.07
14.584511280059814,-0.05,-0.02,0.02,0.05
14.592030048370361,-0.04,-0.01,0.03,0.05
14.60189414024353,-0.05,-0.02,0.03,0.06
14.612126111984253,-0.06,-0.01,0.03,0.06
14.621660232543945,-0.03,0.0,0.03,0.04
14.63222622871399,-0.04,0.0,0.04,0.05
14.644186019897461,-0.06,-0.01,0.04,0.07
14.659368991851807,-0.06,-0.01,0.0,0.06
14.661450147628784,-0.04,-0.01,0.03,0.05
14.674904346466064,-0.05,-0.01,0.03,0.05
14.681682109832764,-0.06,-0.01,0.03,0.06
14.691948175430298,-0.06,-0.01,0.03,0.06
14.703763008117676,-0.05,-0.01,0.04,0.06
14.711252212524414,-0.06,-0.01,0.04,0.07
14.721188068389893,-0.05,-0.01,0.01,0.05
14.733744144439697,-0.04,0.0,0.03,0.05
14.740745067596436,-0.04,0.01,0.05,0.06
14.750868320465088,-0.04,0.0,0.03,0.05
14.760966300964355,-0.06,-0.01,0.02,0.06
14.772286176681519,-0.06,-0.01,0.03,0.06
14.783031225204468,-0.05,-0.01,0.02,0.05
14.792160034179688,-0.06,-0.02,0.01,0.06
14.803858280181885,-0.06,-0.01,0.03,0.06
14.810514211654663,-0.05,0.0,0.03,0.05
14.820487022399902,-0.04,0.0,0.04,0.05
14.832784175872803,-0.05,-0.01,0.03,0.05
14.840023040771484,-0.06,-0.02,0.03,0.06
14.850100040435791,-0.05,0.0,0.03,0.05
14.859876155853271,-0.05,0.0,0.04,0.06
14.870138168334961,-0.05,-0.01,0.03,0.05
14.881862163543701,-0.05,-0.01,0.02,0.05
14.891256332397461,-0.05,-0.02,0.02,0.05
14.905523300170898,-0.04,-0.01,0.02,0.04
14.909651279449463,-0.05,-0.01,0.02,0.05
14.919601202011108,-0.05,-0.01,0.04,0.06
14.929965019226074,-0.05,0.0,0.04,0.06
14.940458297729492,-0.05,0.0,0.04,0.06
14.951900005340576,-0.04,-0.01,0.04,0.05
14.959583282470703,-0.05,-0.01,0.03,0.05
14.96957015991211,-0.06,-0.01,0.03,0.06
14.981513023376465,-0.05,-0.02,0.03,0.06
14.990523338317871,-0.06,-0.02,0.02,0.06
15.00290822982788,-0.05,-0.01,0.03,0.05
15.00891399383545,-0.05,-0.01,0.03,0.05
15.019111156463623,-0.04,0.0,0.03,0.05
15.031017303466797,-0.04,0.0,0.04,0.05
15.040154218673706,-0.05,-0.01,0.04,0.06
15.051243305206299,-0.06,0.0,0.03,0.06
15.05888032913208,-0.05,-0.01,0.04,0.06
15.06877613067627,-0.06,-0.01,0.02,0.06
15.078872203826904,-0.05,-0.02,0.03,0.06
15.090403079986572,-0.04,-0.02,0.02,0.04
15.103539228439331,-0.04,-0.01,0.03,0.05
15.108131170272827,-0.04,-0.01,0.04,0.05
15.126468181610107,-0.05,-0.01,0.03,0.05
15.128634214401245,-0.06,-0.01,0.04,0.07
15.1445631980896,-0.06,0.0,0.04,0.07
15.157456159591675,-0.06,-0.02,0.02,0.06
15.158874034881592,-0.05,-0.02,0.02,0.05
15.167965173721313,-0.01,-0.01,0.04,0.04
15.1786470413208,-0.05,-0.02,0.06,0.08
15.190071105957031,-0.08,-0.01,0.01,0.08
15.201611042022705,-0.07,-0.01,0.0,0.07
15.207723140716553,-0.06,0.0,0.05,0.07
15.218199253082275,-0.04,0.0,0.01,0.04
15.229888200759888,-0.03,-0.02,0.02,0.04
15.23986530303955,-0.04,-0.01,0.07,0.08
15.249052047729492,-0.06,-0.01,0.02,0.06
15.257421016693115,-0.08,-0.01,0.01,0.08
15.267532110214233,-0.05,0.0,0.02,0.05
15.277451992034912,-0.03,0.0,0.03,0.04
15.289404153823853,-0.05,0.0,0.03,0.05
15.3005690574646,-0.05,-0.01,0.02,0.05
15.308172225952148,-0.05,-0.02,0.04,0.06
15.316989183425903,-0.04,-0.02,0.04,0.06
15.329249143600464,-0.06,-0.01,0.02,0.06
15.337882995605469,-0.06,-0.01,0.02,0.06
15.34729528427124,-0.04,0.01,0.03,0.05
15.356744289398193,-0.04,0.0,0.03,0.05
15.366779327392578,-0.06,-0.01,0.03,0.06
15.376877307891846,-0.06,-0.01,0.01,0.06
15.38988733291626,-0.05,0.0,0.03,0.05
15.4047532081604,-0.04,-0.01,0.03,0.05
15.406086206436157,-0.06,-0.01,0.01,0.06
15.416530132293701,-0.05,0.0,0.03,0.05
15.426123142242432,-0.04,0.0,0.04,0.05
15.436345100402832,-0.05,-0.01,0.03,0.05
15.445821285247803,-0.05,-0.01,0.01,0.05
15.45608901977539,-0.05,-0.01,0.02,0.05
15.46628713607788,-0.04,-0.01,0.03,0.05
15.477720260620117,-0.06,-0.01,0.03,0.06
15.488739013671875,-0.07,-0.01,0.01,0.07
15.501849174499512,-0.05,-0.01,0.01,0.05
15.505734205245972,-0.04,-0.01,0.02,0.04
15.515626192092896,-0.05,-0.01,0.02,0.05
15.527743339538574,-0.06,0.0,0.02,0.06
15.538348197937012,-0.05,0.0,0.03,0.05
15.548895120620728,-0.05,0.01,0.04,0.06
15.555469036102295,-0.06,0.0,0.02,0.06
15.565266132354736,-0.06,-0.01,0.02,0.06
15.575244188308716,-0.05,-0.02,0.02,0.05
15.58670425415039,-0.05,-0.02,0.02,0.05
15.599582195281982,-0.05,-0.01,0.01,0.05
15.604652166366577,-0.05,-0.01,0.03,0.05
15.61491322517395,-0.05,-0.01,0.03,0.05
15.62527322769165,-0.05,0.0,0.02,0.05
15.637957096099854,-0.04,0.0,0.02,0.04
15.650384187698364,-0.05,0.0,0.03,0.05
15.654354095458984,-0.05,-0.01,0.02,0.05
15.664671182632446,-0.06,0.0,0.01,0.06
15.677119255065918,-0.06,-0.02,0.02,0.06
15.684288024902344,-0.05,-0.02,0.02,0.05
15.694401264190674,-0.05,0.0,0.02,0.05
15.704265117645264,-0.06,-0.01,0.02,0.06
15.71634316444397,-0.05,-0.01,0.02,0.05
15.724108219146729,-0.05,0.0,0.02,0.05
15.737032175064087,-0.04,0.0,0.03,0.05
15.748571157455444,-0.04,0.0,0.03,0.05
15.753926277160645,-0.05,0.0,0.02,0.05
15.763935089111328,-0.05,-0.01,0.03,0.05
15.775542259216309,-0.06,-0.01,0.03,0.06
15.785243034362793,-0.06,-0.01,0.01,0.06
15.798628330230713,-0.05,-0.01,0.02,0.05
15.803532123565674,-0.04,0.0,0.02,0.04
15.813319206237793,-0.04,-0.01,0.03,0.05
15.823223114013672,-0.05,0.0,0.02,0.05
15.836173057556152,-0.05,-0.01,0.03,0.05
15.849262237548828,-0.07,-0.01,0.03,0.07
15.852943181991577,-0.08,-0.01,0.0,0.08
15.863094329833984,-0.05,-0.01,0.0,0.05
15.873716115951538,-0.04,-0.02,0.04,0.06
15.885491132736206,-0.01,-0.01,0.02,0.02
15.899310111999512,-0.05,-0.02,0.03,0.06
15.902897119522095,-0.08,0.0,0.02,0.08
15.91290807723999,-0.05,0.0,-0.01,0.05
15.923033237457275,-0.04,0.0,0.05,0.06
15.935210227966309,-0.03,0.02,0.01,0.03
15.946362018585205,-0.04,-0.01,0.02,0.04
15.952635288238525,-0.05,-0.01,0.06,0.07
15.962976217269897,-0.06,-0.02,0.01,0.06
15.974834203720093,-0.06,-0.02,0.03,0.06
15.984193325042725,-0.05,0.0,0.03,0.05
15.995934009552002,-0.04,0.0,0.02,0.04
16.00209617614746,-0.06,0.0,0.01,0.06
16.01217031478882,-0.05,0.0,0.01,0.05
16.025050163269043,-0.05,-0.01,0.04,0.06
16.030625343322754,-0.06,-0.02,0.02,0.06
16.04053831100464,-0.07,-0.01,0.03,0.07
16.050544261932373,-0.05,-0.01,0.03,0.05
16.06238317489624,-0.03,-0.01,0.03,0.04
16.07279109954834,-0.05,0.0,0.03,0.05
16.08204221725464,-0.05,-0.01,0.02,0.05
16.092207193374634,-0.05,-0.01,0.02,0.05
16.10037922859192,-0.04,0.0,0.02,0.04
16.110243320465088,-0.05,0.0,0.02,0.05
16.12349033355713,-0.06,-0.01,0.01,0.06
16.13185405731201,-0.05,-0.01,0.02,0.05
16.142484188079834,-0.05,-0.01,0.02,0.05
16.14988899230957,-0.06,-0.01,0.0,0.06
16.160263061523438,-0.05,-0.01,0.01,0.05
16.1727032661438,-0.04,-0.01,0.03,0.05
16.181562185287476,-0.06,-0.01,0.02,0.06
16.192846298217773,-0.07,-0.01,0.02,0.07
16.19942331314087,-0.06,-0.01,0.03,0.06
16.209561347961426,-0.05,0.0,0.03,0.05
16.222790241241455,-0.04,-0.01,0.02,0.04
16.229060173034668,-0.05,-0.01,0.01,0.05
16.23890209197998,-0.05,-0.01,0.02,0.05
16.249269008636475,-0.05,-0.01,0.03,0.05
16.2588210105896,-0.05,0.0,0.03,0.05
16.271762132644653,-0.05,0.0,0.02,0.05
16.28002405166626,-0.05,0.0,0.02,0.05
16.292975187301636,-0.04,-0.01,0.01,0.04
16.29829216003418,-0.04,-0.01,0.01,0.04
16.308874130249023,-0.05,-0.01,0.03,0.05
16.321460247039795,-0.05,-0.01,0.04,0.06
16.330997228622437,-0.06,-0.01,0.02,0.06
16.34244418144226,-0.06,-0.01,0.02,0.06
16.348518133163452,-0.04,0.0,0.02,0.04
16.358188152313232,-0.05,0.01,0.02,0.05
16.368279218673706,-0.05,0.0,0.02,0.05
16.380417346954346,-0.04,0.0,0.02,0.04
16.394760131835938,-0.05,-0.01,0.02,0.05
16.397959232330322,-0.05,0.0,0.03,0.05
16.408205032348633,-0.06,-0.01,0.02,0.06
16.418387174606323,-0.05,-0.01,0.02,0.05
16.429978132247925,-0.04,-0.01,0.02,0.04
16.443010330200195,-0.04,0.0,0.02,0.04
16.4476101398468,-0.04,-0.01,0.03,0.05
16.45778226852417,-0.05,-0.01,0.02,0.05
16.46986722946167,-0.05,0.0,0.02,0.05
16.477500200271606,-0.05,0.0,0.02,0.05
16.487576007843018,-0.06,-0.01,0.02,0.06
16.497201204299927,-0.06,-0.02,0.02,0.06
16.507791996002197,-0.05,0.0,0.03,0.05
16.519949197769165,-0.04,0.0,0.02,0.04
16.527613162994385,-0.06,-0.01,0.03,0.06
16.537217140197754,-0.07,-0.01,0.02,0.07
16.547237157821655,-0.05,0.0,0.0,0.05
16.559714317321777,-0.02,-0.01,0.05,0.05
16.569509029388428,-0.04,-0.01,0.04,0.05
16.57880401611328,-0.05,0.0,0.0,0.05
16.59046721458435,-0.06,0.0,0.05,0.07
16.596752166748047,-0.07,0.0,0.02,0.07
16.60962724685669,-0.05,-0.01,-0.01,0.05
16.619511127471924,-0.05,0.0,0.04,0.06
16.626339197158813,-0.03,0.0,0.01,0.03
16.63673734664917,-0.05,-0.02,0.01,0.05
16.646674156188965,-0.06,-0.01,0.04,0.07
16.65858817100525,-0.05,-0.01,0.03,0.05
16.666141033172607,-0.05,-0.01,0.03,0.05
16.678125143051147,-0.05,0.02,0.02,0.05
16.69017720222473,-0.05,0.0,0.03,0.05
16.696226119995117,-0.04,-0.01,0.02,0.04
16.70628023147583,-0.04,-0.01,0.01,0.04
16.716285228729248,-0.05,-0.01,0.04,0.06
16.727384090423584,-0.06,-0.02,0.01,0.06
16.7405002117157,-0.05,-0.01,0.02,0.05
16.74575901031494,-0.05,0.0,0.03,0.05
16.756275177001953,-0.03,-0.01,0.03,0.04
16.765987157821655,-0.04,0.01,0.04,0.05
16.777204036712646,-0.07,-0.01,0.02,0.07
16.786794185638428,-0.06,-0.01,0.02,0.06
16.795353174209595,-0.05,-0.01,0.02,0.05
16.807746171951294,-0.03,0.0,0.02,0.03
16.81563711166382,-0.04,-0.01,0.01,0.04
16.82653522491455,-0.07,-0.01,0.01,0.07
16.837058067321777,-0.05,-0.01,0.01,0.05
16.845059156417847,-0.04,0.0,0.02,0.04
16.857056140899658,-0.04,0.01,0.03,0.05
16.86711311340332,-0.05,0.0,0.02,0.05
16.876970291137695,-0.06,-0.01,0.02,0.06
16.88783025741577,-0.06,-0.01,0.02,0.06
16.89482307434082,-0.05,0.0,0.02,0.05
16.904839992523193,-0.04,-0.01,0.02,0.04
16.91686201095581,-0.05,-0.01,0.01,0.05
16.924530029296875,-0.07,-0.02,0.01,0.07
16.934234142303467,-0.05,-0.01,0.02,0.05
16.94393825531006,-0.05,-0.01,0.02,0.05
16.95443630218506,-0.04,0.0,0.01,0.04
16.96626615524292,-0.04,0.0,0.03,0.05
16.975540161132812,-0.04,0.0,0.02,0.04
16.98912525177002,-0.05,-0.02,0.02,0.05
16.994060039520264,-0.06,-0.01,0.03,0.06
17.009226322174072,-0.06,-0.02,0.02,0.06
17.01435613632202,-0.05,-0.01,0.01,0.05
17.025034189224243,-0.05,-0.01,0.02,0.05
17.038539171218872,-0.05,-0.01,0.02,0.05
17.043668270111084,-0.04,0.0,0.02,0.04
17.053730010986328,-0.05,0.0,0.03,0.05
17.06556510925293,-0.06,0.0,0.02,0.06
17.07361912727356,-0.05,-0.01,0.02,0.05
17.083335161209106,-0.04,-0.01,0.02,0.04
17.093353271484375,-0.05,-0.02,0.02,0.05
17.10355234146118,-0.06,-0.01,0.02,0.06
17.11521625518799,-0.05,-0.01,0.02,0.05
17.125542163848877,-0.06,-0.02,0.01,0.06
17.138375282287598,-0.05,-0.01,0.02,0.05
17.142836093902588,-0.04,0.0,0.02,0.04
17.160459995269775,-0.05,0.0,0.02,0.05
17.16275405883789,-0.04,0.0,0.02,0.04
17.17689800262451,-0.04,0.0,0.02,0.04
17.188833236694336,-0.04,-0.01,0.02,0.04
17.192246198654175,-0.06,-0.01,0.02,0.06
17.202421188354492,-0.08,-0.01,0.01,0.08
17.21303129196167,-0.04,-0.01,-0.01,0.04
17.224780082702637,-0.01,-0.01,0.05,0.05
17.235189199447632,-0.06,-0.01,0.04,0.07
17.241993188858032,-0.07,-0.01,-0.01,0.07
17.2519371509552,-0.06,-0.01,0.03,0.06
17.262994289398193,-0.05,0.01,0.03,0.05
17.273483276367188,-0.03,0.0,0.0,0.03
17.281530141830444,-0.05,0.01,0.02,0.05
17.291864156723022,-0.06,-0.01,0.02,0.06
17.303953170776367,-0.07,-0.02,0.02,0.07
17.313765048980713,-0.05,-0.02,0.03,0.06
17.32290029525757,-0.05,-0.01,0.05,0.07
17.3338360786438,-0.05,0.0,0.03,0.05
17.34137725830078,-0.06,0.01,0.01,0.06
17.351187229156494,-0.05,0.01,0.02,0.05
17.363189220428467,-0.04,0.01,0.02,0.04
17.374157190322876,-0.04,-0.01,0.03,0.05
17.38499927520752,-0.06,-0.01,0.03,0.06
17.390592098236084,-0.06,-0.01,0.02,0.06
17.400811195373535,-0.05,0.0,0.02,0.05
17.41295099258423,-0.04,0.0,0.03,0.05
17.42278814315796,-0.04,0.0,0.02,0.04
17.43150806427002,-0.05,-0.01,0.03,0.05
17.44059419631958,-0.06,0.0,0.02,0.06
17.451897144317627,-0.06,0.0,0.02,0.06
17.46294927597046,-0.04,-0.01,0.02,0.04
17.471559047698975,-0.04,-0.01,0.02,0.04
17.48130702972412,-0.05,-0.01,0.02,0.05
17.49030303955078,-0.06,0.0,0.02,0.06
17.5036883354187,-0.06,-0.01,0.0,0.06
17.51009702682495,-0.04,0.0,0.01,0.04
17.51989507675171,-0.03,0.0,0.02,0.03
17.529768228530884,-0.04,-0.01,0.03,0.05
17.541773319244385,-0.07,-0.01,0.01,0.07
17.550056219100952,-0.06,-0.01,0.02,0.06
17.562416076660156,-0.03,0.0,0.03,0.04
17.571118116378784,-0.04,0.0,0.03,0.05
17.582940101623535,-0.07,-0.01,0.01,0.07
17.589972019195557,-0.06,-0.02,0.01,0.06
17.599494218826294,-0.04,-0.01,0.03,0.05
17.61084508895874,-0.04,-0.01,0.02,0.04
17.621588230133057,-0.05,-0.01,0.0,0.05
17.62988018989563,-0.06,0.0,0.02,0.06
17.638931274414062,-0.04,-0.01,0.02,0.04
17.651434183120728,-0.05,-0.01,0.02,0.05
17.658851146697998,-0.05,-0.01,0.03,0.05
17.67200231552124,-0.04,-0.01,0.03,0.05
17.68011212348938,-0.04,0.0,0.02,0.04
17.688562154769897,-0.05,0.0,0.01,0.05
17.700838088989258,-0.05,-0.02,0.01,0.05
17.710161209106445,-0.05,-0.01,0.03,0.05
17.720847129821777,-0.06,-0.01,0.03,0.06
17.730443000793457,-0.06,-0.01,0.02,0.06
17.74004316329956,-0.05,-0.01,0.02,0.05
17.750715255737305,-0.04,-0.01,0.04,0.05
17.75997018814087,-0.05,0.0,0.03,0.05
17.771615028381348,-0.06,-0.01,0.01,0.06
17.780888080596924,-0.05,-0.01,0.03,0.05
17.787816047668457,-0.04,0.0,0.02,0.04
17.799907207489014,-0.04,-0.01,0.02,0.04
17.807703018188477,-0.06,-0.01,0.02,0.06
17.820523262023926,-0.06,-0.01,0.01,0.06
17.82791233062744,-0.05,0.0,0.03,0.05
17.84050416946411,-0.04,-0.01,0.02,0.04
17.847707271575928,-0.05,0.0,0.02,0.05
17.858431339263916,-0.05,0.0,0.02,0.05
17.870466232299805,-0.05,-0.01,0.03,0.05
17.883888244628906,-0.05,-0.01,0.01,0.05
17.887107133865356,-0.05,0.0,0.01,0.05
17.8994140625,-0.05,-0.01,0.02,0.05
17.906821250915527,-0.05,-0.01,0.03,0.05
17.919835090637207,-0.06,0.0,0.02,0.06
17.92726230621338,-0.06,-0.01,0.02,0.06
17.936800003051758,-0.05,-0.01,0.02,0.05
17.948116302490234,-0.05,-0.01,0.02,0.05
17.958155155181885,-0.05,-0.01,0.0,0.05
17.96855926513672,-0.04,-0.01,0.02,0.04
17.981284141540527,-0.04,0.01,0.02,0.04
17.986738204956055,-0.04,0.0,0.02,0.04
17.996750116348267,-0.05,0.0,0.03,0.05
18.008217334747314,-0.06,0.0,0.01,0.06
18.016831159591675,-0.07,-0.01,0.01,0.07
18.026602268218994,-0.05,0.0,0.01,0.05
18.03651714324951,-0.04,-0.01,0.02,0.04
18.046287059783936,-0.04,-0.01,0.02,0.04
18.05632734298706,-0.06,-0.01,0.01,0.06
18.067878246307373,-0.06,-0.01,0.02,0.06
18.079519271850586,-0.04,0.0,0.02,0.04
18.086039066314697,-0.04,0.0,0.01,0.04
18.098429203033447,-0.05,-0.01,0.02,0.05
18.10766315460205,-0.07,-0.01,0.01,0.07
18.115914344787598,-0.06,-0.01,0.01,0.06
18.125730991363525,-0.05,-0.01,0.01,0.05
18.135847091674805,-0.04,-0.01,0.02,0.04
18.145552158355713,-0.04,-0.01,0.02,0.04
18.155458211898804,-0.06,-0.01,0.02,0.06
18.165831089019775,-0.04,0.0,0.01,0.04
18.1756010055542,-0.03,0.0,0.01,0.03
18.18541121482849,-0.03,0.0,0.02,0.03
18.195573329925537,-0.05,-0.01,0.01,0.05
18.206868171691895,-0.06,-0.01,0.02,0.06
18.217172145843506,-0.05,-0.01,0.02,0.05
18.229441165924072,-0.05,-0.01,0.02,0.05
18.235535144805908,-0.04,-0.01,0.01,0.04
18.245192050933838,-0.05,-0.01,0.02,0.05
18.255446195602417,-0.05,-0.01,0.01,0.05
18.267592191696167,-0.06,-0.01,0.0,0.06
18.281121253967285,-0.04,-0.01,0.03,0.05
18.284847259521484,-0.03,-0.01,0.02,0.03
18.29499912261963,-0.05,-0.01,0.02,0.05
18.305176258087158,-0.06,-0.01,0.0,0.06
18.31697916984558,-0.06,-0.02,0.0,0.06
18.327773094177246,-0.04,-0.01,0.02,0.04
18.334341049194336,-0.04,0.0,0.01,0.04
18.344765186309814,-0.05,-0.01,0.01,0.05
18.356613159179688,-0.06,-0.01,0.0,0.06
18.36441922187805,-0.05,0.0,0.02,0.05
18.374207019805908,-0.03,0.0,0.02,0.03
18.383957147598267,-0.03,0.0,0.02,0.03
18.396443128585815,-0.05,0.0,0.02,0.05
18.406278133392334,-0.06,-0.01,0.01,0.06
18.41498327255249,-0.06,-0.01,0.01,0.06
18.42551612854004,-0.05,0.0,0.01,0.05
18.433802127838135,-0.05,-0.01,0.01,0.05
18.444242000579834,-0.05,-0.02,0.0,0.05
18.45607328414917,-0.05,-0.01,0.01,0.05
18.46513032913208,-0.05,-0.01,0.02,0.05
18.475778102874756,-0.05,-0.01,0.02,0.05
18.483619213104248,-0.05,0.0,0.02,0.05
18.49372434616089,-0.05,-0.01,0.02,0.05
18.50574016571045,-0.05,-0.01,0.01,0.05
18.515035152435303,-0.05,0.0,0.01,0.05
18.52948808670044,-0.04,-0.01,0.01,0.04
18.533215045928955,-0.04,-0.01,0.02,0.04
18.543248176574707,-0.05,-0.01,0.01,0.05
18.555463314056396,-0.05,0.0,0.02,0.05
18.56316113471985,-0.04,0.0,0.02,0.04
18.5731782913208,-0.04,-0.01,0.01,0.04
18.582801342010498,-0.05,-0.01,0.01,0.05
18.59281611442566,-0.05,-0.01,0.02,0.05
18.605324268341064,-0.05,0.0,0.01,0.05
18.613038063049316,-0.04,-0.01,0.02,0.04
18.622984170913696,-0.05,-0.01,0.01,0.05
18.632572174072266,-0.06,-0.01,0.01,0.06
18.642364025115967,-0.05,-0.01,0.01,0.05
18.655667304992676,-0.05,0.0,0.02,0.05
18.66427516937256,-0.05,-0.01,0.01,0.05
18.67496633529663,-0.04,0.0,0.01,0.04
18.6821391582489,-0.05,0.0,0.02,0.05
18.69235610961914,-0.05,0.0,0.01,0.05
18.70512318611145,-0.05,-0.01,0.02,0.05
18.71290612220764,-0.05,-0.01,0.02,0.05
18.72412419319153,-0.05,-0.01,0.02,0.05
18.731996059417725,-0.05,-0.01,0.01,0.05
18.74199914932251,-0.04,-0.01,0.01,0.04
18.755650997161865,-0.05,0.0,0.02,0.05
18.762527227401733,-0.05,0.0,0.01,0.05
18.77466320991516,-0.05,0.0,0.0,0.05
18.7814781665802,-0.05,-0.01,0.02,0.05
18.79267120361328,-0.05,0.0,0.01,0.05
18.804830074310303,-0.03,-0.01,0.02,0.03
18.81101131439209,-0.05,-0.01,0.02,0.05
18.820909023284912,-0.06,-0.01,0.02,0.06
18.83121109008789,-0.07,-0.01,0.01,0.07
18.84273099899292,-0.05,-0.01,0.02,0.05
18.853946208953857,-0.04,0.0,0.02,0.04
18.86279320716858,-0.05,0.0,0.01,0.05
18.875497341156006,-0.05,-0.01,0.01,0.05
18.880566120147705,-0.06,-0.01,0.01,0.06
18.890668153762817,-0.05,-0.01,0.01,0.05
18.900676250457764,-0.04,-0.01,0.02,0.04
18.913286209106445,-0.05,0.0,0.03,0.05
18.924328327178955,-0.05,0.0,0.01,0.05
18.9306001663208,-0.06,-0.01,0.0,0.06
18.94279718399048,-0.04,0.0,0.02,0.04
18.95062828063965,-0.03,-0.01,0.02,0.03
18.961746215820312,-0.04,-0.01,0.02,0.04
18.973175048828125,-0.06,-0.01,0.01,0.06
18.980107307434082,-0.06,-0.01,0.02,0.06
18.990111112594604,-0.05,-0.01,0.02,0.05
19.00045108795166,-0.04,0.0,0.01,0.04
19.01168727874756,-0.05,0.0,0.01,0.05
19.023542165756226,-0.05,0.0,0.01,0.05
19.029791116714478,-0.05,-0.01,0.01,0.05
19.03961706161499,-0.05,0.0,0.01,0.05
19.052435159683228,-0.04,-0.01,0.02,0.04
19.059413194656372,-0.05,-0.01,0.03,0.05
19.069377183914185,-0.06,-0.01,0.01,0.06
19.079328060150146,-0.06,0.0,0.01,0.06
19.089529991149902,-0.05,-0.01,0.02,0.05
19.10135316848755,-0.04,-0.01,0.02,0.04
19.111021041870117,-0.05,-0.01,0.01,0.05
19.124075174331665,-0.06,-0.01,0.01,0.06
19.12908124923706,-0.06,-0.01,0.02,0.06
19.13900327682495,-0.04,-0.01,0.01,0.04
19.14903712272644,-0.05,0.0,0.02,0.05
19.16087532043457,-0.05,-0.01,0.02,0.05
19.17696213722229,-0.05,-0.01,0.01,0.05
19.17837119102478,-0.05,0.0,0.02,0.05
19.18868923187256,-0.05,0.0,0.01,0.05
19.198331117630005,-0.05,0.0,0.02,0.05
19.21065330505371,-0.05,0.0,0.0,0.05
19.221527099609375,-0.05,-0.01,0.01,0.05
19.228271007537842,-0.05,-0.02,0.02,0.05
19.243089199066162,-0.05,-0.01,0.01,0.05
19.248419284820557,-0.05,-0.01,0.01,0.05
19.259603023529053,-0.05,-0.01,0.01,0.05
19.272544145584106,-0.05,-0.01,0.02,0.05
19.27770709991455,-0.05,-0.01,0.02,0.05
19.287635326385498,-0.05,-0.01,0.02,0.05
19.29981017112732,-0.05,-0.01,0.01,0.05
19.310116291046143,-0.04,-0.01,0.02,0.04
19.321880340576172,-0.05,0.0,0.01,0.05
19.32741928100586,-0.05,-0.01,0.01,0.05
19.337371110916138,-0.05,-0.01,0.02,0.05
19.3474383354187,-0.06,-0.01,0.01,0.06
19.358768224716187,-0.06,-0.01,0.01,0.06
19.370962142944336,-0.06,-0.01,0.01,0.06
19.377471208572388,-0.05,0.0,0.02,0.05
19.38726019859314,-0.04,0.0,0.02,0.04
19.39966630935669,-0.06,-0.01,0.01,0.06
19.406808137893677,-0.06,-0.01,0.01,0.06
19.41680908203125,-0.05,-0.01,0.01,0.05
19.426907062530518,-0.04,0.0,0.01,0.04
19.436928272247314,-0.05,-0.01,0.01,0.05
19.448225021362305,-0.06,-0.01,0.0,0.06
19.456850051879883,-0.05,-0.01,0.0,0.05
19.46750020980835,-0.04,-0.01,0.02,0.04
19.47686004638672,-0.05,-0.01,0.01,0.05
19.48625922203064,-0.05,-0.01,0.01,0.05
19.49762511253357,-0.05,-0.01,0.01,0.05
19.507302284240723,-0.05,-0.01,0.01,0.05
19.52151107788086,-0.04,-0.01,0.01,0.04
19.526092052459717,-0.05,0.0,0.01,0.05
19.536055088043213,-0.05,0.0,0.02,0.05
19.54806613922119,-0.05,-0.01,0.02,0.05
19.557571172714233,-0.05,-0.01,-0.01,0.05
19.569679260253906,-0.06,-0.01,0.02,0.06
19.57702112197876,-0.05,-0.01,0.01,0.05
19.585923194885254,-0.04,0.0,0.0,0.04
19.597710132598877,-0.04,0.0,0.03,0.05
19.60818314552307,-0.06,-0.01,0.0,0.06
19.61954116821289,-0.06,-0.01,0.02,0.06
19.625625133514404,-0.05,0.0,0.01,0.05
19.63534712791443,-0.05,-0.01,0.01,0.05
19.645662307739258,-0.05,-0.01,0.0,0.05
19.657194137573242,-0.05,-0.01,0.02,0.05
19.66896915435791,-0.05,-0.01,0.02,0.05
19.675292015075684,-0.05,-0.02,0.01,0.05
19.685031175613403,-0.05,-0.01,0.01,0.05
19.69705104827881,-0.04,0.0,0.01,0.04
19.70610523223877,-0.04,0.0,0.02,0.04
19.71892499923706,-0.05,-0.01,0.03,0.05
19.724807262420654,-0.05,-0.01,0.01,0.05
19.734694004058838,-0.06,0.0,0.02,0.06
19.744774341583252,-0.06,0.0,0.01,0.06
19.757744312286377,-0.05,-0.01,0.01,0.05
19.769886016845703,-0.04,-0.01,0.02,0.04
19.774259090423584,-0.04,-0.01,0.0,0.04
19.784531116485596,-0.06,-0.02,0.01,0.06
19.794669151306152,-0.06,-0.01,0.02,0.06
19.80625319480896,-0.05,-0.01,0.02,0.05
19.818958282470703,-0.06,-0.01,0.02,0.06
19.824040174484253,-0.06,-0.01,0.0,0.06
19.834053993225098,-0.05,0.01,0.0,0.05
19.844436168670654,-0.04,-0.01,0.02,0.04
19.856608152389526,-0.03,0.0,0.02,0.03
19.8695650100708,-0.05,-0.01,0.02,0.05
19.873549222946167,-0.06,-0.01,0.01,0.06
19.883825302124023,-0.05,-0.01,0.02,0.05
19.893694162368774,-0.04,0.0,0.02,0.04
19.90590214729309,-0.04,-0.01,0.01,0.04
19.91662311553955,-0.04,0.0,0.01,0.04
19.923046112060547,-0.04,0.0,0.02,0.04
19.933393001556396,-0.05,-0.01,0.0,0.05
19.9433650970459,-0.05,-0.02,0.01,0.05
19.95559310913086,-0.07,-0.01,0.02,0.07
19.96710205078125,-0.06,-0.01,0.02,0.06
19.972854137420654,-0.05,0.0,0.01,0.05
19.982941150665283,-0.04,-0.01,0.02,0.04
19.994118213653564,-0.04,0.0,0.02,0.04
20.003080129623413,-0.05,-0.01,0.01,0.05
20.013211250305176,-0.06,-0.01,0.01,0.06
20.022369146347046,-0.06,-0.01,0.02,0.06
20.032371997833252,-0.06,-0.01,0.01,0.06
20.04424214363098,-0.05,-0.02,0.02,0.05
20.054112195968628,-0.05,-0.01,0.01,0.05
20.06563711166382,-0.04,-0.02,0.0,0.04
20.072168111801147,-0.06,-0.01,0.01,0.06
20.081867218017578,-0.06,-0.01,0.01,0.06
20.093679189682007,-0.05,0.0,0.01,0.05
20.103703022003174,-0.05,0.0,0.02,0.05
20.116209030151367,-0.04,0.0,0.03,0.05
20.121845245361328,-0.05,0.0,0.01,0.05
20.131755113601685,-0.04,-0.01,0.01,0.04
20.143182277679443,-0.05,-0.01,0.02,0.05
20.153218269348145,-0.05,-0.01,0.02,0.05
20.165003299713135,-0.05,-0.02,0.01,0.05
20.171508312225342,-0.05,-0.01,0.01,0.05
20.181597232818604,-0.04,-0.01,0.02,0.04
20.193262100219727,-0.04,0.0,0.02,0.04
20.20368528366089,-0.06,0.0,0.01,0.06
20.216877222061157,-0.06,-0.01,0.01,0.06
20.221135139465332,-0.05,-0.01,0.02,0.05
20.231396198272705,-0.05,0.0,0.01,0.05
20.241352081298828,-0.06,-0.01,0.0,0.06
20.253419160842896,-0.06,-0.01,0.0,0.06
20.26698923110962,-0.05,-0.01,0.01,0.05
20.27067232131958,-0.05,0.0,0.01,0.05
20.280802249908447,-0.05,-0.01,0.02,0.05
20.290350198745728,-0.05,-0.01,0.02,0.05
20.3020281791687,-0.05,-0.01,0.01,0.05
20.311055183410645,-0.07,0.0,0.02,0.07
20.320279121398926,-0.09,-0.02,0.01,0.09
20.331651210784912,0.03,0.0,-0.04,0.05
20.341588020324707,0.01,0.0,0.08,0.08
20.35197615623474,-0.14,-0.03,0.09,0.16
20.362194061279297,-0.06,-0.02,-0.2,0.2
20.36970019340515,-0.03,-0.03,0.07,0.08
20.382400035858154,-0.02,0.03,0.13,0.13
20.39113712310791,-0.09,-0.03,-0.09,0.13
20.40182614326477,-0.04,0.0,-0.05,0.06
20.41213822364807,-0.02,0.02,0.07,0.07
20.41977620124817,-0.03,-0.02,0.06,0.06
20.42952823638916,-0.09,-0.01,-0.07,0.11
20.44206428527832,-0.09,-0.02,0.01,0.09
20.452272176742554,-0.04,0.01,0.04,0.05
20.46395516395569,-0.02,-0.01,0.0,0.02
20.469418048858643,-0.05,0.0,0.02,0.05
20.478990077972412,-0.05,0.0,-0.03,0.05
20.489833116531372,-0.04,-0.01,0.03,0.05
20.501375198364258,-0.05,0.0,0.02,0.05
20.51381206512451,-0.06,-0.01,0.0,0.06
20.518851280212402,-0.05,-0.01,0.01,0.05
20.52913808822632,-0.04,0.0,0.01,0.04
20.539363145828247,-0.05,-0.01,0.01,0.05
20.55001211166382,-0.05,-0.01,-0.03,0.05
20.559885025024414,-0.04,-0.01,0.01,0.04
20.570044994354248,-0.04,-0.01,0.02,0.04
20.579930305480957,-0.06,-0.02,0.0,0.06
20.59303903579712,-0.06,-0.01,0.02,0.06
20.601994037628174,-0.05,0.0,0.02,0.05
20.614001274108887,-0.05,-0.01,0.02,0.05
20.62024712562561,-0.04,0.0,0.0,0.04
20.629717111587524,-0.04,0.0,0.01,0.04
20.639856338500977,-0.06,-0.01,0.02,0.06
20.652472019195557,-0.07,-0.02,0.0,0.07
20.66157627105713,-0.05,-0.01,0.01,0.05
20.66965413093567,-0.03,0.0,0.03,0.04
20.67946219444275,-0.05,0.0,0.01,0.05
20.68978714942932,-0.06,0.0,-0.01,0.06
20.701699256896973,-0.04,-0.02,0.01,0.04
20.714444160461426,-0.04,-0.01,0.02,0.04
20.71899914741516,-0.05,-0.01,0.01,0.05
20.729106187820435,-0.07,-0.01,0.0,0.07
20.739074230194092,-0.05,-0.01,0.01,0.05
20.751532077789307,-0.03,0.0,0.02,0.03
20.76576328277588,-0.05,-0.01,0.01,0.05
20.768551111221313,-0.06,-0.01,0.01,0.06
20.77861714363098,-0.05,-0.01,0.0,0.05
20.7887282371521,-0.04,-0.01,0.02,0.04
20.800639152526855,-0.06,-0.01,0.02,0.06
20.81093406677246,-0.06,-0.01,-0.01,0.06
20.818342208862305,-0.05,0.0,0.01,0.05
20.828404188156128,-0.04,0.0,0.02,0.04
20.83861017227173,-0.05,0.0,0.0,0.05
20.850264072418213,-0.05,-0.01,0.0,0.05
20.862361192703247,-0.05,-0.01,0.01,0.05
20.867645263671875,-0.05,-0.01,0.01,0.05
20.877851009368896,-0.05,-0.01,0.0,0.05
20.888503074645996,-0.06,-0.01,0.01,0.06
20.900142192840576,-0.05,0.0,0.0,0.05
20.912607192993164,-0.05,0.0,0.0,0.05
20.917641162872314,-0.05,0.0,0.0,0.05
20.92759132385254,-0.05,-0.01,0.01,0.05
20.93955421447754,-0.05,0.0,0.0,0.05
20.947482109069824,-0.05,-0.01,0.01,0.05
20.957099199295044,-0.05,0.0,0.01,0.05
20.96719217300415,-0.05,-0.01,0.01,0.05
20.977225303649902,-0.04,-0.01,0.01,0.04
20.9891300201416,-0.05,-0.01,0.01,0.05
21.00002121925354,-0.06,-0.02,0.01,0.06
21.011195182800293,-0.05,-0.01,0.0,0.05
21.01726531982422,-0.04,-0.01,0.01,0.04
21.026912212371826,-0.05,-0.01,0.01,0.05
21.03658103942871,-0.05,-0.01,0.01,0.05
21.047008991241455,-0.05,0.0,0.01,0.05
21.056477069854736,-0.04,-0.01,0.01,0.04
21.066734313964844,-0.05,-0.01,0.01,0.05
21.076898097991943,-0.06,-0.01,0.01,0.06
21.088733196258545,-0.05,-0.01,0.01,0.05
21.09846520423889,-0.06,-0.01,0.01,0.06
21.11232328414917,-0.07,0.0,0.01,0.07
21.116502285003662,-0.09,-0.02,0.0,0.09
21.126341342926025,0.02,0.0,-0.04,0.04
21.139252185821533,0.06,0.01,0.05,0.07
21.148283004760742,-0.15,-0.03,0.15,0.21
21.16144609451294,-0.09,0.0,-0.17,0.19
21.165937185287476,-0.04,-0.03,-0.02,0.05
21.175782203674316,0.01,0.04,0.18,0.18
21.185850143432617,-0.05,-0.01,-0.06,0.07
21.198339223861694,-0.08,-0.04,-0.05,0.1
21.212087154388428,-0.05,0.02,0.03,0.06
21.215862274169922,-0.01,-0.03,0.07,0.07
21.226766109466553,-0.05,-0.01,-0.02,0.05
21.235984325408936,-0.09,-0.03,-0.01,0.09
21.24733829498291,-0.06,0.0,0.04,0.07
21.260426998138428,-0.03,0.0,0.0,0.03
21.265175342559814,-0.04,0.0,0.03,0.05
21.275013208389282,-0.05,0.0,-0.03,0.05
21.28536033630371,-0.05,-0.01,0.01,0.05
21.297053337097168,-0.05,-0.01,0.03,0.05
21.310166120529175,-0.06,-0.02,0.01,0.06
21.314808130264282,-0.06,-0.01,0.01,0.06
21.3250732421875,-0.04,-0.01,0.0,0.04
21.335249185562134,-0.05,-0.02,0.02,0.05
21.34724521636963,-0.04,0.0,-0.02,0.04
21.360719203948975,-0.03,-0.01,0.0,0.03
21.364660263061523,-0.04,0.0,0.03,0.05
21.37625026702881,-0.06,0.0,-0.01,0.06
21.38446021080017,-0.06,-0.02,0.02,0.06
21.396128177642822,-0.05,-0.01,0.02,0.05
21.405866146087646,-0.05,0.0,0.0,0.05
21.41426420211792,-0.05,-0.02,0.0,0.05
21.42590618133545,-0.03,0.0,0.01,0.03
21.434531211853027,-0.04,-0.01,0.02,0.04
21.444937229156494,-0.07,-0.01,0.0,0.07
21.45455026626587,-0.07,-0.01,0.01,0.07
21.46409034729004,-0.04,0.0,0.03,0.05
21.47551918029785,-0.04,-0.01,0.03,0.05
21.48688316345215,-0.06,-0.01,0.0,0.06
21.49580717086792,-0.05,-0.01,0.01,0.05
21.5069260597229,-0.03,0.0,0.02,0.03
21.51388120651245,-0.06,-0.02,0.01,0.06
21.526296138763428,-0.08,-0.01,0.0,0.08
21.53343415260315,-0.05,-0.01,0.01,0.05
21.545231342315674,-0.03,0.0,0.03,0.04
21.557440280914307,-0.03,-0.01,0.0,0.03
21.563573122024536,-0.05,-0.02,-0.01,0.05
21.573254108428955,-0.05,0.0,0.01,0.05
21.58320116996765,-0.04,0.0,0.03,0.05
21.59447431564331,-0.05,-0.01,0.01,0.05
21.604777336120605,-0.06,-0.01,-0.01,0.06
21.6128830909729,-0.05,-0.01,0.0,0.05
21.625336170196533,-0.05,-0.01,-0.01,0.05
21.633185148239136,-0.05,-0.02,0.0,0.05
21.646392345428467,-0.05,-0.02,0.01,0.05
21.65708613395691,-0.05,-0.01,0.02,0.05
21.662631034851074,-0.06,-0.01,0.02,0.06
21.672560214996338,-0.05,-0.01,0.02,0.05
21.68431329727173,-0.05,-0.01,0.0,0.05
21.69242215156555,-0.05,0.0,0.0,0.05
21.702892303466797,-0.05,-0.01,0.01,0.05
21.71236801147461,-0.04,-0.01,0.0,0.04
21.722248077392578,-0.05,-0.01,0.01,0.05
21.734280109405518,-0.05,-0.02,0.02,0.05
21.74208927154541,-0.05,0.0,0.01,0.05
21.753084182739258,-0.05,-0.01,0.01,0.05
21.761924266815186,-0.04,0.0,0.0,0.04
21.771746158599854,-0.03,0.0,0.02,0.03
21.78411626815796,-0.04,-0.01,0.01,0.04
21.79154920578003,-0.06,0.0,0.0,0.06
21.801968097686768,-0.07,-0.01,0.01,0.07
21.81160831451416,-0.09,-0.02,-0.01,0.09
21.821447134017944,-0.02,-0.02,-0.02,0.03
21.833702087402344,0.08,-0.01,0.02,0.08
21.841190338134766,-0.06,-0.02,0.1,0.11
21.85111427307129,-0.18,-0.03,-0.03,0.18
21.861212253570557,-0.09,-0.01,-0.14,0.16
21.87332534790039,-0.01,0.02,0.11,0.11
21.88094711303711,-0.01,0.03,0.1,0.1
21.89363718032837,-0.07,-0.02,-0.1,0.12
21.90729331970215,-0.07,-0.01,-0.01,0.07
21.910961151123047,-0.04,-0.01,0.07,0.08
21.925976276397705,-0.04,-0.04,0.02,0.06
21.932708263397217,-0.1,-0.03,-0.02,0.1
21.94084930419922,-0.08,-0.01,0.0,0.08
21.951679229736328,-0.01,0.02,0.0,0.02
21.96023917198181,-0.01,0.01,0.03,0.03
21.970303058624268,-0.04,0.01,0.0,0.04
21.982778072357178,-0.06,-0.02,-0.04,0.07
21.989930152893066,-0.05,-0.01,0.04,0.06
22.000173091888428,-0.06,-0.01,0.03,0.06
22.009648323059082,-0.06,-0.03,0.0,0.06
22.020000219345093,-0.07,-0.01,0.01,0.07
22.0322322845459,-0.05,-0.01,0.0,0.05
22.041364192962646,-0.03,0.0,0.01,0.03
22.05375623703003,-0.03,0.0,-0.02,0.03
22.059843063354492,-0.04,-0.01,0.01,0.04
22.079474210739136,-0.06,-0.01,0.03,0.06
22.083165168762207,-0.06,-0.01,0.02,0.06
22.09005308151245,-0.06,-0.02,0.02,0.06
22.09954309463501,-0.06,-0.01,0.0,0.06
22.10939621925354,-0.05,-0.01,-0.01,0.05
22.119699001312256,-0.04,-0.01,0.0,0.04
22.131946086883545,-0.02,0.01,0.01,0.02
22.140727996826172,-0.05,0.0,0.01,0.05
22.152802228927612,-0.07,-0.01,0.0,0.07
22.158860206604004,-0.05,-0.01,0.02,0.05
22.168995141983032,-0.04,-0.01,0.02,0.04
22.178911209106445,-0.04,-0.02,-0.01,0.04
22.191362142562866,-0.05,-0.01,-0.01,0.05
22.2015221118927,-0.04,0.0,0.01,0.04
22.20859718322754,-0.04,0.0,0.02,0.04
22.21858811378479,-0.07,0.0,0.0,0.07
22.22884225845337,-0.07,0.0,-0.01,0.07
22.24123215675354,-0.03,0.0,0.02,0.03
22.25451421737671,-0.02,0.0,0.02,0.02
22.258077144622803,-0.06,-0.01,0.0,0.06
22.26811408996582,-0.06,-0.02,-0.02,0.06
22.278584003448486,-0.04,-0.01,0.01,0.04
22.29097819328308,-0.05,-0.01,0.03,0.05
22.30253028869629,-0.06,-0.01,0.01,0.06
22.30790901184082,-0.06,-0.01,-0.01,0.06
22.317866325378418,-0.04,0.0,0.01,0.04
22.32820701599121,-0.03,-0.01,0.01,0.03
22.3400821685791,-0.04,-0.01,0.01,0.04
22.35255527496338,-0.05,0.0,0.0,0.05
22.357200145721436,-0.05,0.0,0.01,0.05
22.367456197738647,-0.05,0.0,0.01,0.05
22.377713203430176,-0.06,0.0,0.0,0.06
22.38953399658203,-0.05,0.0,0.01,0.05
22.402557134628296,-0.05,0.0,0.0,0.05
22.407023191452026,-0.04,0.0,0.0,0.04
22.417246341705322,-0.05,-0.02,0.01,0.05
22.42734718322754,-0.05,-0.01,0.01,0.05
22.438462257385254,-0.05,-0.01,0.01,0.05
22.451580047607422,-0.06,-0.01,0.01,0.06
22.456592082977295,-0.06,0.0,0.0,0.06
22.466658115386963,-0.05,-0.01,0.0,0.05
22.47890019416809,-0.07,-0.02,0.0,0.07
22.48668622970581,0.03,0.0,-0.04,0.05
22.496437072753906,0.01,0.0,0.06,0.06
22.5068461894989,-0.16,-0.04,0.12,0.2
22.516563177108765,-0.08,-0.02,-0.19,0.2
22.52887511253357,-0.04,-0.03,0.01,0.05
22.538536071777344,0.02,0.04,0.16,0.16
22.552024126052856,-0.04,-0.02,-0.07,0.08
22.55590319633484,-0.08,-0.02,-0.03,0.08
22.566092014312744,-0.06,0.01,0.02,0.06
22.575900077819824,-0.01,-0.03,0.05,0.05
22.58899211883545,-0.05,0.01,0.0,0.05
22.59963822364807,-0.09,-0.04,-0.01,0.09
22.60609722137451,-0.06,0.0,0.0,0.06
22.615921020507812,-0.02,-0.01,0.0,0.02
22.626115322113037,-0.03,0.0,0.03,0.04
22.638504028320312,-0.05,-0.01,-0.04,0.06
22.64993906021118,-0.06,-0.02,0.01,0.06
22.655416011810303,-0.05,0.0,0.02,0.05
22.66552734375,-0.06,-0.02,0.0,0.06
22.675775051116943,-0.05,0.0,0.01,0.05
22.68774914741516,-0.05,-0.02,0.01,0.05
22.69874334335327,-0.04,0.0,0.02,0.04
22.705204010009766,-0.05,0.0,-0.02,0.05
22.715717315673828,-0.05,-0.01,0.0,0.05
22.725154161453247,-0.05,-0.01,0.02,0.05
22.737635135650635,-0.05,-0.01,0.01,0.05
22.748786211013794,-0.05,0.0,0.02,0.05
22.754974126815796,-0.04,0.0,-0.01,0.04
22.764650344848633,-0.04,0.0,0.01,0.04
22.776814222335815,-0.04,-0.01,0.0,0.04
22.78632616996765,-0.04,0.0,0.0,0.04
22.799718141555786,-0.06,0.0,0.02,0.06
22.804501056671143,-0.07,-0.01,0.0,0.07
22.814399242401123,-0.06,-0.01,0.0,0.06
22.82478904724121,-0.04,-0.01,0.01,0.04
22.835926055908203,-0.04,0.0,0.01,0.04
22.84743618965149,-0.04,0.0,0.0,0.04
22.854295253753662,-0.05,-0.01,0.01,0.05
22.86408519744873,-0.04,0.0,0.01,0.04
22.874592304229736,-0.06,-0.01,0.0,0.06
22.88637113571167,-0.07,-0.01,0.0,0.07
22.89843511581421,-0.05,-0.01,0.01,0.05
22.903863191604614,-0.03,0.0,0.0,0.03
22.913763999938965,-0.04,-0.01,0.01,0.04
22.924049139022827,-0.07,-0.01,0.0,0.07
22.934002161026,-0.06,-0.01,0.0,0.06
22.945093154907227,-0.05,0.0,0.02,0.05
22.9532151222229,-0.04,0.0,0.02,0.04
22.963075160980225,-0.04,0.0,0.01,0.04
22.97596025466919,-0.05,-0.01,0.0,0.05
22.98544406890869,-0.04,0.0,0.02,0.04
22.998996257781982,-0.05,-0.01,0.01,0.05
23.00278902053833,-0.06,-0.01,0.0,0.06
23.012810230255127,-0.06,-0.01,0.0,0.06
23.022975206375122,-0.06,-0.02,0.02,0.06
23.03605818748474,-0.04,-0.01,0.01,0.04
23.0491681098938,-0.04,-0.01,0.0,0.04
23.052722215652466,-0.05,0.0,0.01,0.05
23.062774181365967,-0.04,0.0,0.02,0.04
23.07280921936035,-0.05,0.0,0.01,0.05
23.084179162979126,-0.05,0.0,0.0,0.05
23.0959210395813,-0.05,-0.01,0.0,0.05
23.1023530960083,-0.04,-0.01,0.01,0.04
23.112099170684814,-0.04,-0.01,0.01,0.04
23.123757123947144,-0.06,-0.01,0.01,0.06
23.13391613960266,-0.04,0.0,0.01,0.04
23.147059202194214,-0.04,0.0,0.01,0.04
23.152048110961914,-0.05,0.0,0.02,0.05
23.16197419166565,-0.06,0.0,0.0,0.06
23.172104120254517,-0.05,-0.01,0.0,0.05
23.18391704559326,-0.04,0.0,0.01,0.04
23.197588205337524,-0.05,-0.02,0.0,0.05
23.201706171035767,-0.06,-0.01,0.0,0.06
23.21145725250244,-0.06,0.0,0.0,0.06
23.22122311592102,-0.05,0.0,0.0,0.05
23.23165512084961,-0.06,-0.01,0.01,0.06
23.241680145263672,-0.05,-0.02,-0.01,0.05
23.251480102539062,-0.02,0.0,0.0,0.02
23.261547088623047,-0.05,0.0,0.05,0.07
23.274060249328613,-0.08,-0.01,-0.03,0.08
23.281376123428345,-0.05,-0.01,-0.04,0.06
23.291059017181396,-0.04,0.0,0.06,0.07
23.300896167755127,-0.03,0.0,-0.01,0.03
23.31069326400757,-0.06,-0.01,-0.01,0.06
23.324035167694092,-0.05,0.0,0.01,0.05
23.333088159561157,-0.04,-0.01,0.0,0.04
23.346620082855225,-0.04,0.0,0.02,0.04
23.35055422782898,-0.05,-0.01,0.0,0.05
23.360319137573242,-0.05,-0.01,0.01,0.05
23.371249198913574,-0.05,-0.01,0.0,0.05
23.382384300231934,-0.05,-0.01,0.02,0.05
23.393784999847412,-0.04,-0.01,0.0,0.04
23.400092124938965,-0.04,-0.01,-0.01,0.04
23.41006326675415,-0.05,0.0,0.02,0.05
23.422572135925293,-0.06,-0.01,-0.01,0.06
23.43154811859131,-0.06,-0.01,0.0,0.06
23.443146228790283,-0.04,0.0,0.01,0.04
23.449669122695923,-0.04,0.0,0.01,0.04
23.460276126861572,-0.05,-0.01,0.0,0.05
23.470773220062256,-0.05,-0.01,0.0,0.05
23.4816792011261,-0.05,-0.01,0.01,0.05
23.49626612663269,-0.04,-0.01,0.0,0.04
23.499452114105225,-0.06,-0.01,0.01,0.06
23.50941801071167,-0.06,-0.01,0.0,0.06
23.521881103515625,-0.05,-0.01,0.0,0.05
23.52923822402954,-0.05,0.0,0.01,0.05
23.539069175720215,-0.04,0.0,0.0,0.04
23.54905128479004,-0.03,0.0,0.01,0.03
23.55955410003662,-0.05,-0.01,0.0,0.05
23.57123327255249,-0.06,-0.01,0.0,0.06
23.580825328826904,-0.06,-0.01,0.01,0.06
23.595194339752197,-0.05,-0.01,0.0,0.05
23.598633289337158,-0.05,-0.01,0.0,0.05
23.608710289001465,-0.05,-0.01,0.01,0.05
23.621049165725708,-0.05,0.0,-0.01,0.05
23.630117177963257,-0.05,0.0,0.02,0.05
23.64265727996826,-0.07,-0.01,0.01,0.07
23.648415088653564,-0.06,-0.01,-0.01,0.06
23.658812999725342,-0.05,-0.01,0.02,0.05
23.668554306030273,-0.05,-0.01,0.01,0.05
23.679808139801025,-0.05,-0.02,0.01,0.05
23.693130016326904,-0.06,0.0,0.0,0.06
23.697878122329712,-0.05,-0.01,0.0,0.05
23.708238124847412,-0.04,-0.01,0.01,0.04
23.718640327453613,-0.05,0.0,0.0,0.05
23.730796337127686,-0.04,-0.01,0.01,0.04
23.746816158294678,-0.04,-0.01,0.0,0.04
23.748236179351807,-0.05,-0.01,0.0,0.05
23.75789213180542,-0.05,0.0,0.01,0.05
23.76773715019226,-0.05,-0.01,0.0,0.05
23.78004217147827,-0.06,-0.01,0.01,0.06
23.79462218284607,-0.06,-0.01,0.0,0.06
23.79704999923706,-0.06,-0.01,0.0,0.06
23.80772614479065,-0.05,-0.01,0.01,0.05
23.817352294921875,-0.04,-0.01,0.01,0.04
23.82927703857422,-0.05,-0.01,0.01,0.05
23.845396995544434,-0.05,-0.01,0.01,0.05
23.846898078918457,-0.05,0.0,0.02,0.05
23.857020139694214,-0.05,0.0,0.0,0.05
23.86952829360962,-0.05,-0.01,0.01,0.05
23.876806259155273,-0.05,-0.01,0.0,0.05
23.886808156967163,-0.05,-0.01,-0.01,0.05
23.89673113822937,-0.05,-0.01,0.0,0.05
23.908650159835815,-0.05,0.0,0.01,0.05
23.919435024261475,-0.05,-0.01,0.0,0.05
23.92838430404663,-0.06,-0.01,0.0,0.06
23.938175201416016,-0.05,-0.01,0.01,0.05
23.946344137191772,-0.04,-0.01,0.01,0.04
23.95643901824951,-0.04,0.0,0.01,0.04
23.96660017967224,-0.05,-0.01,0.01,0.05
23.978772163391113,-0.05,0.0,0.0,0.05
23.99611806869507,-0.05,-0.01,0.0,0.05
23.997464179992676,-0.06,-0.01,0.01,0.06
24.006224155426025,-0.05,-0.01,-0.01,0.05
24.016155242919922,-0.04,0.0,0.0,0.04
24.027931213378906,-0.04,-0.01,0.01,0.04
24.03873634338379,-0.04,0.0,0.01,0.04
24.04570722579956,-0.05,0.0,0.01,0.05
24.05595827102661,-0.06,-0.01,0.0,0.06
24.066699028015137,-0.06,-0.01,0.0,0.06
24.077380180358887,-0.05,0.0,0.0,0.05
24.09229016304016,-0.04,-0.01,0.0,0.04
24.09496307373047,-0.05,-0.01,0.0,0.05
24.106722116470337,-0.05,-0.02,0.01,0.05
24.11680316925049,-0.05,0.0,0.01,0.05
24.126748085021973,-0.05,-0.01,0.0,0.05
24.13991928100586,-0.05,0.0,0.02,0.05
24.145034313201904,-0.04,0.0,0.01,0.04
24.154946327209473,-0.05,0.0,0.0,0.05
24.166375160217285,-0.05,0.0,0.01,0.05
24.176376342773438,-0.05,-0.01,0.01,0.05
24.18897008895874,-0.06,-0.01,0.0,0.06
24.194622039794922,-0.05,-0.01,0.0,0.05
24.204697132110596,-0.06,-0.02,0.01,0.06
24.21486520767212,-0.06,-0.01,0.0,0.06
24.226139068603516,-0.05,0.0,0.0,0.05
24.24013113975525,-0.03,-0.01,0.0,0.03
24.24404215812683,-0.04,0.0,0.0,0.04
24.25566816329956,-0.05,-0.01,0.01,0.05
24.264530181884766,-0.06,-0.01,0.0,0.06
24.274856090545654,-0.06,-0.01,0.0,0.06
24.28696322441101,-0.05,-0.01,0.0,0.05
24.2935152053833,-0.05,-0.01,0.0,0.05
24.30381202697754,-0.06,-0.02,0.0,0.06
24.315808296203613,-0.05,-0.01,0.0,0.05
24.32388210296631,-0.04,-0.01,0.02,0.04
24.334643125534058,-0.05,-0.01,0.02,0.05
24.343406200408936,-0.07,0.0,0.0,0.07
24.353395223617554,-0.05,0.01,0.0,0.05
24.365443229675293,-0.04,0.0,0.02,0.04
24.373552322387695,-0.05,0.0,0.0,0.05
24.383007049560547,-0.05,-0.01,0.0,0.05
24.39323616027832,-0.06,-0.01,0.01,0.06
24.40331220626831,-0.05,-0.01,0.0,0.05
24.414350032806396,-0.05,-0.01,0.0,0.05
24.425594329833984,-0.06,0.0,0.01,0.06
24.439452171325684,-0.04,0.0,0.0,0.04
24.4430513381958,-0.05,-0.01,0.0,0.05
24.46378517150879,-0.05,0.0,0.0,0.05
24.46717619895935,-0.05,-0.01,0.01,0.05
24.472544193267822,-0.05,-0.01,0.01,0.05
24.48290514945984,-0.04,0.0,0.0,0.04
24.49272322654724,-0.05,-0.01,0.0,0.05
24.502223014831543,-0.05,-0.01,0.0,0.05
24.513917207717896,-0.05,-0.01,0.0,0.05
24.524368286132812,-0.05,-0.01,0.01,0.05
24.53798532485962,-0.05,0.0,-0.01,0.05
24.542410135269165,-0.04,0.0,0.01,0.04
24.552253246307373,-0.05,-0.01,0.02,0.05
24.564364194869995,-0.06,-0.01,-0.02,0.06
24.572404146194458,-0.05,0.0,0.0,0.05
24.583375215530396,-0.04,0.0,0.01,0.04
24.592114210128784,-0.05,-0.02,-0.01,0.05
24.601930141448975,-0.06,-0.02,0.0,0.06
24.61410617828369,-0.05,-0.01,0.0,0.05
24.62187099456787,-0.04,-0.01,-0.01,0.04
24.63296413421631,-0.05,-0.01,0.0,0.05
24.6412672996521,-0.05,-0.01,0.0,0.05
24.6518292427063,-0.04,-0.01,0.02,0.04
24.663279056549072,-0.04,-0.01,0.01,0.04
24.673471212387085,-0.05,-0.01,0.0,0.05
24.68744707107544,-0.05,-0.01,0.01,0.05
24.69118618965149,-0.05,-0.01,0.0,0.05
24.709195137023926,-0.05,-0.01,0.02,0.05
24.71097707748413,-0.05,-0.01,0.0,0.05
24.72675323486328,-0.05,-0.01,-0.01,0.05
24.738007068634033,-0.04,-0.01,0.0,0.04
24.740708112716675,-0.05,-0.02,0.0,0.05
24.75076413154602,-0.05,-0.01,-0.01,0.05
24.762588024139404,-0.04,0.0,0.01,0.04
24.770369052886963,-0.03,0.0,0.01,0.03
24.780381202697754,-0.04,0.0,0.0,0.04
24.79038715362549,-0.04,-0.01,0.0,0.04
24.802885055541992,-0.05,-0.02,0.02,0.05
24.810079097747803,-0.06,-0.02,0.0,0.06
24.82286500930786,-0.05,-0.02,-0.01,0.05
24.83399200439453,-0.04,-0.01,0.0,0.04
24.83978819847107,-0.04,-0.01,0.0,0.04
24.85001230239868,-0.06,-0.01,0.0,0.06
24.860164165496826,-0.06,-0.01,0.0,0.06
24.87245011329651,-0.06,0.0,0.01,0.06
24.886287212371826,-0.05,-0.01,0.01,0.05
24.889913082122803,-0.05,-0.02,0.01,0.05
24.899646282196045,-0.05,-0.01,0.01,0.05
24.909701347351074,-0.05,-0.01,0.01,0.05
24.92190408706665,-0.05,-0.02,0.0,0.05
24.93604016304016,-0.05,-0.01,0.0,0.05
24.939176082611084,-0.04,-0.01,0.02,0.04
24.94957208633423,-0.05,0.0,0.0,0.05
24.96299719810486,-0.06,0.0,0.0,0.06
24.969348192214966,-0.05,0.0,0.01,0.05
24.978986263275146,-0.04,0.01,0.01,0.04
24.98899221420288,-0.04,-0.01,-0.01,0.04
24.999341011047363,-0.06,-0.01,-0.01,0.06
25.01087212562561,-0.05,-0.01,-0.01,0.05
25.018795013427734,-0.05,-0.01,0.0,0.05
25.028701305389404,-0.05,-0.01,0.01,0.05
25.03861904144287,-0.05,-0.01,0.01,0.05
25.049045085906982,-0.04,0.0,0.01,0.04
25.0613911151886,-0.05,-0.01,0.0,0.05
25.068470001220703,-0.05,-0.01,0.0,0.05
25.07844614982605,-0.05,-0.01,-0.01,0.05
25.088292121887207,-0.05,-0.01,0.01,0.05
25.098648071289062,-0.05,-0.01,0.0,0.05
25.110708236694336,-0.04,-0.01,0.0,0.04
25.11955714225769,-0.04,-0.01,0.0,0.04
25.131473064422607,-0.05,-0.02,0.0,0.05
25.137932300567627,-0.05,-0.01,0.0,0.05
25.15077829360962,-0.05,-0.01,0.0,0.05
25.160040140151978,-0.05,-0.01,0.01,0.05
25.16769027709961,-0.05,-0.01,0.01,0.05
25.177643299102783,-0.05,0.0,0.01,0.05
25.18796420097351,-0.04,-0.01,0.0,0.04
25.197970151901245,-0.05,-0.01,0.01,0.05
25.209859132766724,-0.06,-0.01,0.0,0.06
25.217509269714355,-0.06,-0.01,0.01,0.06
25.227413177490234,-0.05,-0.01,0.0,0.05
25.237462043762207,-0.04,-0.01,0.0,0.04
25.24782705307007,-0.05,0.0,0.0,0.05
25.25913119316101,-0.05,-0.01,0.01,0.05
25.269811153411865,-0.05,0.0,0.0,0.05
25.28069519996643,-0.05,0.0,0.0,0.05
25.286970138549805,-0.05,-0.01,0.0,0.05
25.297080993652344,-0.04,-0.01,0.01,0.04
25.30871820449829,-0.05,-0.01,0.01,0.05
25.319268226623535,-0.05,0.0,0.0,0.05
25.3323392868042,-0.05,0.0,-0.01,0.05
25.336770057678223,-0.05,-0.01,0.0,0.05
25.346599102020264,-0.05,-0.01,0.0,0.05
25.358641147613525,-0.05,-0.01,0.01,0.05
25.368776321411133,-0.04,-0.01,0.0,0.04
25.382448196411133,-0.05,-0.01,0.0,0.05
25.385927200317383,-0.06,-0.01,0.0,0.06
25.396376132965088,-0.05,-0.02,0.0,0.05
25.406439304351807,-0.04,0.0,0.0,0.04
25.418297290802002,-0.04,0.0,0.01,0.04
25.430143117904663,-0.06,-0.01,0.0,0.06
25.436076164245605,-0.05,0.0,0.01,0.05
25.44596004486084,-0.05,-0.01,0.01,0.05
25.458611011505127,-0.06,-0.01,0.0,0.06
25.467470169067383,-0.05,-0.01,0.0,0.05
25.479835033416748,-0.04,0.0,0.0,0.04
25.485685110092163,-0.04,0.0,0.01,0.04
25.496097087860107,-0.05,0.0,0.0,0.05
25.507692337036133,-0.05,-0.01,0.01,0.05
25.51683211326599,-0.05,0.0,0.01,0.05
25.53074622154236,-0.05,-0.01,0.0,0.05
25.53526020050049,-0.06,-0.01,0.0,0.06
25.5453200340271,-0.05,-0.01,0.0,0.05
25.557289123535156,-0.05,0.0,0.01,0.05
25.56709909439087,-0.04,-0.01,0.01,0.04
25.58001708984375,-0.05,-0.02,0.01,0.05
25.58509612083435,-0.05,-0.01,0.0,0.05
25.594788074493408,-0.05,-0.02,0.0,0.05
25.60484504699707,-0.05,-0.01,0.0,0.05
25.617050170898438,-0.05,-0.01,-0.01,0.05
25.631286144256592,-0.05,0.0,0.0,0.05
25.634286165237427,-0.05,0.0,0.01,0.05
25.6444730758667,-0.05,-0.01,0.01,0.05
25.65468716621399,-0.05,-0.01,-0.01,0.05
25.666686058044434,-0.06,-0.01,0.0,0.06
25.68052315711975,-0.05,-0.01,0.0,0.05
25.684121131896973,-0.05,0.0,-0.01,0.05
25.694072246551514,-0.05,-0.01,0.0,0.05
25.70416831970215,-0.05,-0.01,0.01,0.05
25.715764045715332,-0.05,0.0,-0.01,0.05
25.728734016418457,-0.06,-0.01,-0.01,0.06
25.733665227890015,-0.04,-0.01,0.0,0.04
25.743489265441895,-0.05,-0.01,0.0,0.05
25.754799127578735,-0.05,0.0,0.0,0.05
25.764928340911865,-0.04,-0.01,0.01,0.04
25.773552179336548,-0.05,-0.01,0.0,0.05
25.783297061920166,-0.05,-0.01,0.01,0.05
25.79549217224121,-0.05,-0.01,0.0,0.05
25.804521083831787,-0.04,-0.01,0.0,0.04
25.81523323059082,-0.05,-0.01,0.01,0.05
25.826595306396484,-0.05,-0.01,0.01,0.05
25.83313012123108,-0.05,-0.01,-0.01,0.05
25.845373153686523,-0.05,-0.01,0.0,0.05
25.852490186691284,-0.05,0.0,0.0,0.05
25.8648362159729,-0.05,0.0,0.0,0.05
25.87784433364868,-0.05,-0.01,0.0,0.05
25.882713317871094,-0.05,0.0,0.0,0.05
25.8926420211792,-0.05,0.0,0.01,0.05
25.905030250549316,-0.05,-0.01,0.0,0.05
25.914969205856323,-0.06,-0.01,0.0,0.06
25.926968097686768,-0.05,-0.01,0.0,0.05
25.932429313659668,-0.05,-0.01,0.0,0.05
25.94246530532837,-0.05,0.0,0.01,0.05
25.954870223999023,-0.05,-0.01,0.0,0.05
25.963261127471924,-0.05,-0.01,0.0,0.05
25.975377082824707,-0.05,-0.01,0.0,0.05
25.982028007507324,-0.05,-0.01,0.0,0.05
25.99220609664917,-0.05,-0.02,0.0,0.05
26.004772186279297,-0.04,-0.02,0.0,0.04
26.014121055603027,-0.05,-0.01,0.0,0.05
26.027279138565063,-0.06,-0.01,-0.01,0.06
26.031747341156006,-0.05,-0.01,0.0,0.05
26.042489051818848,-0.05,-0.01,0.0,0.05
26.052202224731445,-0.04,0.0,0.0,0.04
26.06417226791382,-0.05,-0.01,0.0,0.05
26.07709813117981,-0.05,-0.01,-0.01,0.05
26.081085205078125,-0.05,-0.01,0.01,0.05
26.091240167617798,-0.05,0.0,-0.01,0.05
26.10186004638672,-0.06,-0.01,0.0,0.06
26.11360812187195,-0.05,0.0,0.0,0.05
26.128358125686646,-0.05,-0.01,-0.01,0.05
26.13071322441101,-0.05,-0.01,0.01,0.05
26.140681266784668,-0.05,-0.01,0.0,0.05
26.15087914466858,-0.06,-0.01,0.0,0.06
26.1614191532135,-0.06,-0.01,0.0,0.06
26.174352169036865,-0.05,-0.01,0.0,0.05
26.180580139160156,-0.04,0.0,0.02,0.04
26.19090700149536,-0.04,0.0,0.01,0.04
26.203282117843628,-0.05,-0.01,-0.01,0.05
26.21021819114685,-0.05,-0.01,0.0,0.05
26.220470190048218,-0.05,-0.01,0.01,0.05
26.230379104614258,-0.05,-0.01,0.01,0.05
26.240296125411987,-0.05,-0.01,0.0,0.05
26.25258207321167,-0.05,-0.01,-0.01,0.05
26.26194715499878,-0.05,-0.01,0.0,0.05
26.276060104370117,-0.05,0.0,0.0,0.05
26.279553174972534,-0.05,0.0,0.0,0.05
26.28959608078003,-0.05,0.0,0.01,0.05
26.300096035003662,-0.05,-0.01,0.0,0.05
26.309768199920654,-0.05,-0.01,0.0,0.05
26.32038402557373,-0.05,-0.01,-0.01,0.05
26.329415321350098,-0.05,-0.02,-0.01,0.05
26.33996820449829,-0.05,-0.01,0.0,0.05
26.351128101348877,-0.05,-0.01,0.0,0.05
26.361632347106934,-0.04,-0.01,0.0,0.04
26.37475299835205,-0.05,0.0,0.01,0.05
26.379103183746338,-0.05,0.0,0.0,0.05
26.38921022415161,-0.05,0.0,0.0,0.05
26.399034023284912,-0.05,0.0,0.0,0.05
26.41097927093506,-0.05,-0.01,0.0,0.05
26.423187255859375,-0.05,-0.01,-0.01,0.05
26.428990125656128,-0.06,-0.01,0.0,0.06
26.43864917755127,-0.05,-0.01,0.0,0.05
26.448880195617676,-0.04,-0.01,0.01,0.04
26.460411071777344,-0.05,0.0,0.0,0.05
26.47438907623291,-0.05,0.0,-0.01,0.05
26.478341102600098,-0.05,0.0,0.0,0.05
26.49228525161743,-0.04,0.0,0.0,0.04
26.49888014793396,-0.05,-0.01,0.01,0.05
26.51007914543152,-0.05,-0.01,0.01,0.05
26.52161717414856,-0.05,-0.01,0.0,0.05
26.528249263763428,-0.05,-0.01,0.0,0.05
26.538281202316284,-0.06,-0.01,0.0,0.06
26.550218105316162,-0.05,-0.01,0.0,0.05
26.5595281124115,-0.05,-0.01,-0.01,0.05
26.57200312614441,-0.05,0.0,-0.01,0.05
26.578222274780273,-0.06,-0.01,0.01,0.06
26.58811616897583,-0.05,0.0,-0.01,0.05
26.59839916229248,-0.06,-0.01,0.01,0.06
26.609968185424805,-0.05,-0.01,0.01,0.05
26.623582124710083,-0.05,-0.01,0.0,0.05
26.62738013267517,-0.05,-0.01,-0.01,0.05
26.63765811920166,-0.05,-0.02,-0.01,0.05
26.647853136062622,-0.05,-0.01,0.0,0.05
26.659193992614746,-0.05,0.0,-0.01,0.05
26.67100214958191,-0.05,-0.01,0.0,0.05
26.67724919319153,-0.05,-0.01,0.0,0.05
26.687182188034058,-0.05,-0.01,0.0,0.05
26.699283123016357,-0.04,-0.01,0.0,0.04
26.70809316635132,-0.04,-0.01,0.0,0.04
26.720951080322266,-0.05,-0.01,0.01,0.05
26.72711706161499,-0.05,-0.02,0.0,0.05
26.736937999725342,-0.05,-0.01,-0.01,0.05
26.747169017791748,-0.05,-0.01,0.0,0.05
26.758946180343628,-0.05,-0.01,-0.01,0.05
26.77146816253662,-0.04,-0.01,-0.01,0.04
26.77704119682312,-0.05,0.0,0.0,0.05
26.78628420829773,-0.05,0.0,0.0,0.05
26.79842710494995,-0.05,0.0,-0.01,0.05
26.806235313415527,-0.05,-0.01,0.01,0.05
26.8160982131958,-0.05,-0.01,0.0,0.05
26.82595419883728,-0.05,-0.01,0.0,0.05
26.835836172103882,-0.05,-0.01,0.01,0.05
26.848080158233643,-0.05,-0.01,-0.01,0.05
26.857033252716064,-0.05,-0.01,0.0,0.05
26.869181156158447,-0.04,-0.01,0.0,0.04
26.87587022781372,-0.05,-0.02,0.0,0.05
26.88605308532715,-0.05,0.0,-0.01,0.05
26.897894144058228,-0.04,-0.01,-0.01,0.04
26.907548189163208,-0.05,-0.01,-0.01,0.05
26.92045521736145,-0.05,-0.01,0.0,0.05
26.92532730102539,-0.05,-0.01,0.01,0.05
26.935119152069092,-0.05,-0.01,0.01,0.05
26.947715282440186,-0.06,-0.01,0.0,0.06
26.95765733718872,-0.05,-0.01,-0.01,0.05
26.971290111541748,-0.04,-0.01,0.0,0.04
26.97482919692993,-0.04,0.0,0.0,0.04
26.98514699935913,-0.05,0.0,-0.01,0.05
26.995258331298828,-0.05,-0.01,-0.01,0.05
27.006673336029053,-0.05,0.0,-0.01,0.05
27.01797914505005,-0.05,-0.01,0.0,0.05
27.024452209472656,-0.05,-0.01,0.0,0.05
27.03463912010193,-0.06,-0.02,-0.01,0.06
27.046752214431763,-0.04,-0.02,0.01,0.04
27.056076049804688,-0.04,0.0,0.01,0.04
27.06843900680542,-0.05,-0.01,0.01,0.05
27.074449062347412,-0.06,-0.01,0.01,0.06
27.08442521095276,-0.05,0.0,0.01,0.05
27.096230030059814,-0.06,0.0,0.0,0.06
27.104549169540405,-0.05,-0.01,0.01,0.05
27.115760326385498,-0.05,-0.01,0.0,0.05
27.124237060546875,-0.04,-0.01,0.0,0.04
27.134109020233154,-0.05,-0.01,0.0,0.05
27.145389080047607,-0.05,-0.01,0.0,0.05
27.155381202697754,-0.05,-0.01,0.0,0.05
27.168564319610596,-0.05,-0.01,-0.01,0.05
27.17378330230713,-0.05,-0.01,0.0,0.05
27.18376922607422,-0.04,0.0,0.01,0.04
27.19587516784668,-0.04,0.0,0.0,0.04
27.205899238586426,-0.05,-0.01,0.0,0.05
27.221039295196533,-0.04,0.0,0.0,0.04
27.223196029663086,-0.05,-0.01,0.0,0.05
27.23328924179077,-0.05,-0.02,0.0,0.05
27.24345827102661,-0.05,-0.01,0.0,0.05
27.25564217567444,-0.05,-0.01,0.01,0.05
27.269314289093018,-0.05,-0.01,0.0,0.05
27.272715091705322,-0.05,-0.01,0.0,0.05
27.28308916091919,-0.05,-0.01,0.01,0.05
27.294923305511475,-0.05,-0.01,0.0,0.05
27.303890228271484,-0.05,-0.01,0.0,0.05
27.315585136413574,-0.06,0.0,0.0,0.06
27.322996139526367,-0.05,-0.01,0.0,0.05
27.334557056427002,-0.05,0.0,0.0,0.05
27.34407114982605,-0.05,0.0,0.01,0.05
27.354884147644043,-0.05,-0.01,0.0,0.05
27.36926507949829,-0.04,-0.01,0.0,0.04
27.372416019439697,-0.05,-0.01,0.01,0.05
27.382110118865967,-0.05,0.0,-0.01,0.05
27.392617225646973,-0.05,0.0,0.01,0.05
27.40473222732544,-0.05,-0.01,0.0,0.05
27.41734218597412,-0.04,-0.01,-0.01,0.04
27.422280311584473,-0.05,-0.01,0.0,0.05
27.43189001083374,-0.05,-0.01,0.0,0.05
27.441771030426025,-0.05,-0.01,0.0,0.05
27.454135179519653,-0.06,-0.01,-0.01,0.06
27.46523427963257,-0.05,0.0,-0.01,0.05
27.471802234649658,-0.05,-0.01,0.0,0.05
27.48137617111206,-0.05,-0.01,0.0,0.05
27.491761207580566,-0.05,-0.02,0.0,0.05
27.503706216812134,-0.05,0.0,0.0,0.05
27.514860153198242,-0.05,0.0,0.01,0.05
27.521360158920288,-0.05,0.0,0.0,0.05
27.531196117401123,-0.05,0.0,0.0,0.05
27.542609214782715,-0.05,0.0,0.0,0.05
27.553417205810547,-0.05,-0.01,0.0,0.05
27.56952214241028,-0.04,-0.01,-0.01,0.04
27.571003198623657,-0.05,-0.01,0.0,0.05
27.580902099609375,-0.05,0.0,0.0,0.05
27.590813159942627,-0.05,0.0,0.01,0.05
27.601094245910645,-0.05,-0.01,0.0,0.05
27.61161518096924,-0.06,-0.01,0.01,0.06
27.62068510055542,-0.05,-0.01,0.01,0.05
27.630825996398926,-0.05,-0.01,-0.01,0.05
27.643047332763672,-0.06,-0.02,0.0,0.06
27.652689218521118,-0.05,-0.01,0.0,0.05
27.66368007659912,-0.05,-0.01,0.0,0.05
27.67019033432007,-0.05,-0.01,0.0,0.05
27.680177211761475,-0.05,0.0,0.0,0.05
27.692652225494385,-0.04,-0.01,0.0,0.04
27.702216148376465,-0.05,-0.01,0.0,0.05
27.714354991912842,-0.06,-0.01,0.0,0.06
27.71990203857422,-0.05,-0.01,0.01,0.05
27.729851245880127,-0.05,-0.01,0.0,0.05
27.741908073425293,-0.05,-0.01,-0.01,0.05
27.751516342163086,-0.05,-0.01,0.0,0.05
27.766685009002686,-0.04,-0.01,0.01,0.04
27.769329071044922,-0.04,-0.01,0.0,0.04
27.779531002044678,-0.05,-0.01,0.01,0.05
27.791653156280518,-0.05,-0.01,0.0,0.05
27.799957275390625,-0.05,-0.01,0.0,0.05
27.81278920173645,-0.06,-0.01,0.0,0.06
27.81925320625305,-0.05,-0.02,-0.01,0.05
27.829333305358887,-0.05,-0.02,0.0,0.05
27.84174633026123,-0.04,-0.01,0.0,0.04
27.851072311401367,-0.05,-0.01,0.01,0.05
27.864898204803467,-0.06,-0.02,0.0,0.06
27.8685302734375,-0.06,-0.01,0.0,0.06
27.878787994384766,-0.05,-0.01,0.02,0.05
27.888837337493896,-0.05,-0.01,0.01,0.05
27.900606155395508,-0.05,-0.01,0.0,0.05
27.91226100921631,-0.04,-0.01,0.0,0.04
27.918363094329834,-0.04,-0.01,-0.01,0.04
27.92856216430664,-0.05,-0.01,0.0,0.05
27.938514232635498,-0.05,-0.01,0.0,0.05
27.949945211410522,-0.05,-0.01,0.0,0.05
27.963618278503418,-0.04,-0.01,-0.01,0.04
27.967888116836548,-0.04,0.0,0.0,0.04
27.97831916809082,-0.05,-0.01,-0.01,0.05
27.988388061523438,-0.05,-0.01,0.0,0.05
28.000423192977905,-0.06,-0.01,0.0,0.06
28.01510214805603,-0.05,-0.01,-0.01,0.05
28.017933130264282,-0.05,0.0,0.01,0.05
28.02778720855713,-0.05,0.0,0.0,0.05
28.03818130493164,-0.06,-0.01,0.0,0.06
28.050130128860474,-0.05,-0.01,0.01,0.05
28.061593055725098,-0.05,-0.01,0.0,0.05
28.067371129989624,-0.05,-0.01,0.01,0.05
28.07745599746704,-0.05,0.0,0.0,0.05
28.08950710296631,-0.05,-0.01,0.0,0.05
28.099348068237305,-0.06,0.0,0.0,0.06
28.11131000518799,-0.05,0.0,0.0,0.05
28.117269039154053,-0.04,0.0,0.0,0.04
28.127154111862183,-0.05,-0.01,-0.01,0.05
28.138899326324463,-0.05,-0.01,0.0,0.05
28.148606300354004,-0.04,-0.01,0.0,0.04
28.161620140075684,-0.04,0.0,-0.01,0.04
28.16662621498108,-0.05,0.0,0.0,0.05
28.176806211471558,-0.05,-0.01,0.01,0.05
28.18885111808777,-0.05,0.0,0.0,0.05
28.196510314941406,-0.05,0.0,0.0,0.05
28.20650315284729,-0.05,-0.01,0.0,0.05
28.216105222702026,-0.05,-0.01,0.0,0.05
28.228398323059082,-0.05,0.0,0.0,0.05
28.238628149032593,-0.04,-0.01,0.0,0.04
28.24813413619995,-0.05,-0.01,0.0,0.05
28.262264251708984,-0.04,-0.01,0.01,0.04
28.26615810394287,-0.05,0.0,0.01,0.05
28.2757830619812,-0.05,0.0,0.01,0.05
28.288197994232178,-0.05,-0.01,0.0,0.05
28.296032190322876,-0.05,-0.01,-0.01,0.05
28.306626319885254,-0.05,-0.01,-0.01,0.05
28.315601110458374,-0.05,-0.01,0.01,0.05
28.32572317123413,-0.05,-0.01,0.01,0.05
28.337719202041626,-0.05,-0.01,0.0,0.05
28.34761118888855,-0.04,0.0,0.0,0.04
28.363039016723633,-0.05,-0.01,0.0,0.05
28.365126132965088,-0.05,0.0,0.0,0.05
28.375489234924316,-0.06,0.0,0.0,0.06
28.385274171829224,-0.06,0.0,0.0,0.06
28.397622108459473,-0.04,0.0,0.0,0.04
28.41413712501526,-0.04,0.0,0.0,0.04
28.415203094482422,-0.05,-0.01,-0.01,0.05
28.42483115196228,-0.05,-0.02,-0.01,0.05
28.434816122055054,-0.05,-0.01,0.0,0.05
28.444923162460327,-0.05,-0.01,0.0,0.05
28.456716060638428,-0.04,-0.01,0.0,0.04
28.464953184127808,-0.05,-0.01,0.0,0.05
28.476007223129272,-0.05,-0.01,0.0,0.05
28.485770225524902,-0.05,-0.01,0.0,0.05
28.49706506729126,-0.06,-0.01,0.01,0.06
28.514931201934814,-0.05,-0.01,0.0,0.05
28.51625108718872,-0.05,-0.01,0.0,0.05
28.52426815032959,-0.05,-0.01,0.0,0.05
28.534139156341553,-0.05,-0.01,0.0,0.05
28.546446323394775,-0.05,-0.02,-0.01,0.05
28.562860012054443,-0.05,-0.01,-0.01,0.05
28.563939094543457,-0.05,-0.01,-0.01,0.05
28.57402229309082,-0.05,-0.01,0.0,0.05
28.583927154541016,-0.05,-0.01,0.0,0.05
28.596023082733154,-0.04,-0.01,0.0,0.04
28.610186100006104,-0.05,-0.01,0.0,0.05
28.613359212875366,-0.06,-0.01,-0.01,0.06
28.623764038085938,-0.05,-0.01,0.0,0.05
28.63376808166504,-0.04,-0.01,0.0,0.04
28.6453800201416,-0.04,0.0,0.0,0.04
28.659175157546997,-0.05,-0.01,-0.01,0.05
28.663111209869385,-0.06,-0.01,-0.01,0.06
28.673338174819946,-0.06,-0.01,0.0,0.06
28.68350601196289,-0.04,-0.01,0.01,0.04
28.694937229156494,-0.05,-0.01,0.0,0.05
28.70643901824951,-0.05,-0.01,0.0,0.05
28.712873220443726,-0.05,-0.01,0.0,0.05
28.72292423248291,-0.06,-0.01,0.0,0.06
28.735544204711914,-0.05,-0.01,-0.01,0.05
28.742788314819336,-0.06,0.0,0.0,0.06
28.75272512435913,-0.05,-0.01,0.0,0.05
28.762497186660767,-0.05,-0.01,0.01,0.05
28.77396011352539,-0.05,-0.01,0.0,0.05
28.78257131576538,-0.05,-0.01,-0.01,0.05
28.793947219848633,-0.05,-0.01,0.0,0.05
28.80635714530945,-0.05,0.0,0.0,0.05
28.81204128265381,-0.05,0.0,0.01,0.05
28.82195019721985,-0.05,0.0,0.01,0.05
28.8339741230011,-0.05,-0.01,0.0,0.05
28.843083143234253,-0.05,-0.01,0.0,0.05
28.855719089508057,-0.05,-0.01,0.01,0.05
28.861770153045654,-0.05,-0.01,0.0,0.05
28.87162733078003,-0.05,0.0,0.0,0.05
28.883999347686768,-0.04,-0.01,0.0,0.04
28.891651153564453,-0.04,-0.01,0.0,0.04
28.902302265167236,-0.05,-0.01,-0.01,0.05
28.911500215530396,-0.06,-0.01,0.0,0.06
28.921335220336914,-0.06,-0.01,0.01,0.06
28.93383812904358,-0.05,0.0,0.0,0.05
28.943522214889526,-0.04,-0.01,0.01,0.04
28.955289125442505,-0.04,-0.01,0.0,0.04
28.96141529083252,-0.05,-0.02,-0.01,0.05
28.97235918045044,-0.05,-0.02,0.0,0.05
28.98072624206543,-0.05,-0.01,0.0,0.05
28.992870330810547,-0.06,-0.01,0.01,0.06
29.006476163864136,-0.05,0.0,0.01,0.05
29.010833263397217,-0.04,0.0,0.0,0.04
29.020801067352295,-0.05,-0.01,0.01,0.05
29.030829191207886,-0.06,0.0,0.0,0.06
29.042911052703857,-0.07,-0.01,0.0,0.07
29.056653022766113,-0.06,-0.01,0.01,0.06
29.060465335845947,-0.05,0.0,0.0,0.05
29.073841094970703,-0.03,0.0,0.0,0.03
29.08016300201416,-0.03,-0.01,0.02,0.03
29.092589139938354,-0.06,-0.01,0.01,0.06
29.10683822631836,-0.07,-0.02,-0.03,0.07
29.1101291179657,-0.06,-0.01,0.02,0.06
29.124332189559937,-0.03,0.01,0.0,0.03
29.1300311088562,-0.05,-0.01,-0.01,0.05
29.146337032318115,-0.05,-0.01,-0.01,0.05
29.156777143478394,-0.05,-0.01,0.0,0.05
29.15942120552063,-0.05,-0.01,0.0,0.05
29.169633150100708,-0.05,0.0,0.01,0.05
29.18016004562378,-0.06,-0.01,0.0,0.06
29.192536115646362,-0.05,0.0,0.01,0.05
29.204164028167725,-0.04,0.0,0.01,0.04
29.209376335144043,-0.04,0.0,0.0,0.04
29.21940016746521,-0.05,-0.01,-0.01,0.05
29.22964334487915,-0.05,-0.01,0.01,0.05
29.240933179855347,-0.05,-0.01,0.01,0.05
29.253985166549683,-0.05,-0.01,0.0,0.05
29.25901508331299,-0.05,0.0,0.01,0.05
29.269127130508423,-0.05,-0.01,-0.01,0.05
29.281220197677612,-0.05,0.0,0.0,0.05
29.28871512413025,-0.04,-0.01,0.0,0.04
29.29908323287964,-0.04,-0.01,0.0,0.04
29.308910131454468,-0.05,-0.01,0.01,0.05
29.318639278411865,-0.06,-0.01,0.0,0.06
29.330918312072754,-0.05,-0.01,0.0,0.05
29.33826518058777,-0.05,-0.01,0.0,0.05
29.34863805770874,-0.05,0.0,0.0,0.05
29.357855319976807,-0.05,0.0,0.0,0.05
29.3679301738739,-0.04,0.0,0.0,0.04
29.37980604171753,-0.05,-0.01,0.0,0.05
29.38886022567749,-0.05,-0.01,0.0,0.05
29.40122127532959,-0.06,0.0,0.0,0.06
29.407823085784912,-0.05,-0.01,0.0,0.05
29.41781234741211,-0.05,-0.01,0.0,0.05
29.428940296173096,-0.05,-0.01,-0.01,0.05
29.437891006469727,-0.04,-0.01,0.0,0.04
29.4482421875,-0.05,-0.01,0.01,0.05
29.457367181777954,-0.05,-0.01,-0.01,0.05
29.467770099639893,-0.06,-0.01,0.0,0.06
29.479051113128662,-0.05,-0.01,0.0,0.05
29.48863410949707,-0.04,-0.01,0.0,0.04
29.50200128555298,-0.05,-0.01,0.0,0.05
29.50702214241028,-0.05,-0.01,-0.01,0.05
29.51718020439148,-0.04,-0.01,-0.01,0.04
29.52791714668274,-0.04,-0.01,0.01,0.04
29.538729190826416,-0.05,-0.01,0.0,0.05
29.55301523208618,-0.05,0.0,0.0,0.05
29.557172298431396,-0.05,-0.01,0.02,0.05
29.566737174987793,-0.05,0.0,0.0,0.05
29.578492164611816,-0.05,-0.01,0.0,0.05
29.588317155838013,-0.05,0.0,0.0,0.05
29.601307153701782,-0.05,-0.01,0.0,0.05
29.60636615753174,-0.05,0.0,0.0,0.05
29.616820335388184,-0.05,-0.01,0.0,0.05
29.626336097717285,-0.05,-0.01,0.0,0.05
29.638129234313965,-0.05,-0.02,0.0,0.05
29.650445222854614,-0.06,-0.02,0.01,0.06
29.655946254730225,-0.05,-0.01,0.0,0.05
29.667644023895264,-0.05,0.0,0.0,0.05
29.678791999816895,-0.04,0.0,0.01,0.04
29.68838930130005,-0.05,-0.01,0.0,0.05
29.69565200805664,-0.05,-0.01,0.0,0.05
29.705424308776855,-0.05,-0.01,0.01,0.05
29.718533039093018,-0.04,-0.01,0.01,0.04
29.727269172668457,-0.04,-0.01,0.0,0.04
29.7382972240448,-0.05,-0.01,0.0,0.05
29.7498140335083,-0.06,-0.01,-0.01,0.06
29.75554132461548,-0.05,0.0,0.0,0.05
29.765425205230713,-0.04,-0.01,0.0,0.04
29.7764310836792,-0.04,0.0,-0.01,0.04
29.786920070648193,-0.04,-0.01,0.0,0.04
29.80080509185791,-0.05,-0.01,0.0,0.05
29.80503821372986,-0.05,-0.02,0.0,0.05
29.81503915786743,-0.04,-0.01,0.0,0.04
29.82534408569336,-0.05,-0.01,0.01,0.05
29.83593225479126,-0.05,-0.01,0.0,0.05
29.846647262573242,-0.05,0.0,0.0,0.05
29.85474419593811,-0.05,-0.01,0.0,0.05
