time,ax,ay,az,atotal
0.04045391082763672,-0.09,0.03,0.08,0.12
0.043792009353637695,-0.02,0.04,0.04,0.06
0.04452991485595703,-0.02,0.0,-0.07,0.07
0.045243024826049805,-0.03,-0.07,-0.1,0.12
0.04594707489013672,-0.02,-0.04,-0.08,0.09
0.047460079193115234,0.0,0.02,-0.1,0.1
0.0579218864440918,-0.01,0.01,-0.12,0.12
0.06763696670532227,-0.02,0.01,-0.06,0.06
0.07758092880249023,-0.03,-0.01,-0.05,0.05
0.08757591247558594,-0.03,0.0,0.01,0.03
0.09882402420043945,-0.05,0.01,0.09,0.1
0.10959696769714355,-0.04,0.02,0.09,0.1
0.11867713928222656,-0.03,0.0,0.04,0.05
0.12947607040405273,-0.03,0.01,0.01,0.03
0.13856005668640137,-0.02,0.02,-0.05,0.05
0.14880895614624023,0.0,0.0,-0.11,0.11
0.15871810913085938,0.0,-0.01,-0.16,0.16
0.16884994506835938,0.01,0.0,-0.1,0.1
0.18041515350341797,0.01,0.01,0.01,0.01
0.1894221305847168,0.04,-0.04,0.01,0.05
0.1996750831604004,0.1,-0.07,0.0,0.12
0.20918512344360352,0.07,-0.05,-0.06,0.1
0.21974897384643555,-0.01,-0.01,-0.03,0.03
0.23013782501220703,-0.09,0.03,0.0,0.09
0.2391979694366455,-0.08,0.04,-0.01,0.09
0.2492990493774414,-0.1,0.06,-0.02,0.11
0.25876402854919434,-0.08,0.05,-0.04,0.1
0.26891613006591797,-0.07,0.03,-0.13,0.15
0.2791881561279297,-0.05,-0.01,-0.12,0.13
0.2886080741882324,-0.01,-0.03,-0.06,0.06
0.29889917373657227,-0.03,-0.01,-0.02,0.03
0.3083930015563965,-0.05,0.0,0.07,0.08
0.3185391426086426,-0.07,0.0,0.14,0.15
0.3288850784301758,-0.1,0.01,0.26,0.27
0.33849287033081055,-0.12,0.01,0.26,0.28
0.3482341766357422,-0.1,0.02,0.31,0.32
0.35861897468566895,-0.11,0.04,0.26,0.28
0.36863088607788086,-0.1,0.03,0.22,0.24
0.3779878616333008,-0.07,0.02,0.11,0.13
0.3880138397216797,-0.03,0.0,-0.08,0.08
0.3978738784790039,0.04,-0.03,-0.27,0.27
0.4079108238220215,0.25,-0.04,-1.35,1.37
0.41767311096191406,-0.13,0.01,0.33,0.35
0.4276390075683594,-0.03,-0.01,0.17,0.17
0.43753504753112793,-0.01,0.02,-0.13,0.13
0.4475820064544678,-0.06,0.0,0.08,0.1
0.4575159549713135,-0.02,-0.03,-0.08,0.08
0.4675259590148926,-0.04,0.01,0.02,0.04
0.47745513916015625,-0.05,0.04,0.0,0.06
0.48723793029785156,-0.01,0.01,-0.02,0.02
0.4974689483642578,-0.05,-0.02,0.0,0.05
0.5075149536132812,-0.03,0.02,-0.01,0.03
0.516542911529541,-0.02,0.02,-0.01,0.03
0.5255630016326904,-0.04,-0.01,0.01,0.04
0.5354580879211426,-0.04,0.0,0.01,0.04
0.5450911521911621,-0.02,0.0,-0.02,0.02
0.5553760528564453,-0.03,0.01,-0.02,0.03
0.5650558471679688,-0.03,0.0,0.01,0.03
0.575078010559082,-0.03,0.0,-0.01,0.03
0.584834098815918,-0.03,0.0,-0.01,0.03
0.5949690341949463,-0.02,0.01,-0.01,0.02
0.6047501564025879,-0.03,0.0,-0.02,0.03
0.6147708892822266,-0.04,0.0,0.03,0.05
0.6246860027313232,-0.04,0.0,0.02,0.04
0.6345679759979248,-0.04,0.01,-0.01,0.04
0.6444599628448486,-0.04,0.01,-0.01,0.04
0.6545748710632324,-0.03,0.01,-0.03,0.04
0.6643900871276855,-0.03,0.0,0.0,0.03
0.6743011474609375,-0.03,0.0,0.0,0.03
0.6844329833984375,-0.03,0.0,-0.01,0.03
0.6942529678344727,-0.03,0.01,-0.01,0.03
0.7042379379272461,-0.04,0.01,0.0,0.04
0.7142670154571533,-0.04,0.01,0.0,0.04
0.7242741584777832,-0.04,0.0,0.0,0.04
0.7360990047454834,-0.04,0.0,0.0,0.04
0.7461638450622559,-0.04,0.01,-0.01,0.04
0.7558960914611816,-0.03,0.01,-0.03,0.04
0.7654528617858887,-0.03,0.0,-0.02,0.03
0.7754411697387695,-0.03,0.01,0.0,0.03
0.7858271598815918,-0.03,0.0,0.0,0.03
0.7954399585723877,-0.03,0.0,0.01,0.03
0.8052921295166016,-0.04,0.0,0.0,0.04
0.8151321411132812,-0.04,0.0,-0.01,0.04
0.8242959976196289,-0.03,0.01,-0.01,0.03
0.8352870941162109,-0.03,0.0,0.0,0.03
0.8428330421447754,-0.04,0.0,0.0,0.04
0.8533239364624023,-0.04,0.0,0.0,0.04
0.8649389743804932,-0.03,-0.02,-0.01,0.03
0.8746199607849121,-0.03,0.0,-0.02,0.03
0.884437084197998,-0.03,0.01,-0.01,0.03
0.8948788642883301,-0.04,0.0,-0.01,0.04
0.904289960861206,-0.04,0.0,0.0,0.04
0.9148111343383789,-0.04,0.0,0.01,0.04
0.9244599342346191,-0.03,0.0,0.0,0.03
0.9386119842529297,-0.03,0.0,-0.07,0.07
0.9432249069213867,0.02,-0.01,-0.33,0.33
0.9533419609069824,-0.05,0.03,0.27,0.27
0.9629778861999512,-0.03,-0.01,-0.06,0.06
0.9731268882751465,-0.03,0.0,0.11,0.11
0.9829740524291992,-0.05,0.02,0.05,0.07
0.9942619800567627,-0.05,0.0,0.07,0.08
1.0029380321502686,-0.04,-0.01,0.03,0.05
1.0140180587768555,-0.04,0.01,0.06,0.07
1.0227580070495605,-0.04,0.02,0.02,0.04
1.03289794921875,-0.02,0.0,-0.05,0.05
1.0554840564727783,-0.02,-0.01,-0.2,0.2
1.0731849670410156,-0.02,0.0,0.03,0.03
1.0749168395996094,-0.04,0.01,0.0,0.04
1.0770299434661865,-0.03,0.0,-0.02,0.03
1.0808191299438477,-0.02,0.01,-0.01,0.02
1.0908839702606201,-0.04,0.0,0.0,0.04
1.1005430221557617,-0.03,-0.01,-0.01,0.03
1.110672950744629,-0.03,0.0,0.0,0.03
1.1207079887390137,-0.04,0.01,0.01,0.04
1.1320960521697998,-0.04,0.01,0.0,0.04
1.1408138275146484,-0.04,0.01,-0.01,0.04
1.1503779888153076,-0.03,0.0,0.0,0.03
1.1601250171661377,-0.03,0.0,-0.02,0.03
1.1724019050598145,-0.04,-0.01,-0.02,0.04
1.1828689575195312,-0.02,0.0,-0.01,0.02
1.192483901977539,-0.03,0.01,0.01,0.03
1.2059378623962402,-0.03,0.0,0.0,0.03
1.209995985031128,-0.03,0.01,0.0,0.03
1.2197608947753906,-0.03,0.0,0.0,0.03
1.232485055923462,-0.04,0.01,0.01,0.04
1.2400741577148438,-0.02,0.0,0.0,0.02
1.2499089241027832,-0.03,0.0,-0.03,0.04
1.259896993637085,-0.01,0.01,0.0,0.01
1.2699451446533203,-0.03,0.0,0.0,0.03
1.2820019721984863,-0.03,-0.01,-0.02,0.03
1.291182041168213,-0.03,0.0,-0.01,0.03
1.3019671440124512,-0.03,0.01,-0.01,0.03
1.309211015701294,-0.03,0.0,-0.01,0.03
1.3196239471435547,-0.04,0.0,0.01,0.04
1.3317220211029053,-0.05,0.0,0.02,0.05
1.339097023010254,-0.03,0.01,0.02,0.03
1.3492259979248047,-0.04,0.01,0.0,0.04
1.3598260879516602,-0.03,0.01,-0.01,0.03
1.3707449436187744,-0.02,0.0,0.01,0.02
1.3790309429168701,-0.03,0.0,0.0,0.03
1.3905768394470215,-0.03,0.0,-0.02,0.03
1.402791976928711,-0.03,0.01,0.0,0.03
1.4083869457244873,-0.03,0.0,-0.01,0.03
1.4198310375213623,-0.03,0.0,-0.01,0.03
1.4306988716125488,-0.04,0.0,-0.01,0.04
1.440026044845581,-0.03,0.01,-0.01,0.03
1.4487791061401367,-0.02,0.0,-0.02,0.02
1.4581689834594727,-0.02,0.0,-0.01,0.02
1.4685258865356445,-0.03,0.01,-0.01,0.03
1.4780030250549316,-0.03,0.01,0.0,0.03
1.4896390438079834,-0.03,0.0,-0.01,0.03
1.5004160404205322,-0.04,0.0,0.0,0.04
1.5075111389160156,-0.04,0.0,0.0,0.04
1.5193209648132324,-0.04,0.01,0.0,0.04
1.5293631553649902,-0.04,0.01,0.01,0.04
1.5392990112304688,-0.03,0.01,-0.01,0.03
1.5497210025787354,-0.02,0.01,-0.01,0.02
1.5573740005493164,-0.02,0.0,0.0,0.02
1.5697388648986816,-0.02,-0.03,-0.01,0.03
1.5773429870605469,-0.05,0.03,0.02,0.06
1.5877938270568848,-0.03,0.0,0.03,0.04
1.5971040725708008,-0.05,-0.01,0.1,0.11
1.6070940494537354,-0.01,-0.02,-0.12,0.12
1.617401123046875,0.01,-0.05,-0.09,0.1
1.6298439502716064,0.15,-0.04,0.06,0.16
1.6375000476837158,0.26,-0.05,0.02,0.26
1.6468291282653809,0.17,0.0,-0.01,0.17
1.658876895904541,0.07,-0.03,-0.09,0.11
1.6680889129638672,0.0,-0.05,0.0,0.05
1.6791949272155762,0.01,0.01,0.15,0.15
1.6869499683380127,-0.03,0.02,0.08,0.08
1.6966240406036377,-0.29,0.13,0.01,0.31
1.7065229415893555,-0.43,0.11,0.02,0.44
1.7187650203704834,-0.38,0.05,-0.07,0.38
1.726531982421875,0.02,-0.04,-0.13,0.13
1.7384049892425537,0.29,-0.01,-0.04,0.29
1.7503719329833984,0.24,-0.03,0.07,0.25
1.7560160160064697,0.12,-0.05,0.03,0.13
1.766319990158081,-0.06,-0.03,0.0,0.06
1.7791030406951904,-0.23,0.06,-0.03,0.23
1.7862880229949951,-0.35,0.09,-0.01,0.36
1.7957959175109863,-0.31,-0.03,-0.02,0.31
1.8060169219970703,-0.22,0.05,-0.08,0.23
1.8182921409606934,-0.06,0.04,-0.07,0.1
1.8284368515014648,0.11,-0.04,0.02,0.11
1.835463047027588,0.19,-0.05,0.1,0.22
1.8455119132995605,0.1,-0.03,0.12,0.15
1.8554139137268066,-0.05,0.05,0.18,0.19
1.867522954940796,-0.06,-0.01,0.21,0.21
1.8751988410949707,-0.04,-0.06,0.19,0.2
1.8868141174316406,-0.04,0.09,0.24,0.25
1.8991150856018066,0.01,0.03,0.29,0.29
1.904867172241211,-0.04,-0.01,0.25,0.25
1.917037010192871,-0.19,0.05,0.07,0.2
1.9272799491882324,-0.3,-0.01,-0.12,0.32
1.9347748756408691,-0.3,0.0,-0.23,0.37
1.9447760581970215,-0.2,0.09,-0.27,0.34
1.954740047454834,-0.16,0.08,-0.15,0.23
1.9671850204467773,-0.21,0.01,-0.04,0.21
1.9774479866027832,-0.3,0.04,0.06,0.3
1.9845209121704102,-0.36,0.13,-0.52,0.64
1.994370937347412,-0.18,0.0,-3.75,3.75
2.004392147064209,0.61,-0.02,0.57,0.83
2.0161938667297363,0.77,-0.45,-0.31,0.94
2.0242538452148438,0.74,-0.24,-0.61,0.98
2.036309003829956,0.36,-0.06,0.32,0.48
2.0486879348754883,-0.11,-0.06,0.47,0.48
2.0540051460266113,-0.41,0.13,0.57,0.71
2.0691919326782227,-0.77,0.32,3.23,3.33
2.073862075805664,-0.42,0.2,-0.45,0.64
2.0842580795288086,-0.16,-0.08,-0.35,0.39
2.0937459468841553,0.13,-0.02,0.38,0.4
2.104184150695801,0.41,-0.16,-0.15,0.46
2.1158528327941895,0.39,-0.15,-0.19,0.45
2.126439094543457,0.13,-0.01,-0.06,0.14
2.133410930633545,-0.15,0.09,0.1,0.2
2.1433780193328857,-0.3,0.06,0.07,0.31
2.1531269550323486,-0.32,0.06,-0.11,0.34
2.1653409004211426,-0.21,0.08,-0.16,0.27
2.1730589866638184,-0.04,0.03,-0.08,0.09
2.1852221488952637,0.14,-0.09,-0.1,0.19
2.1969900131225586,0.22,-0.1,-0.09,0.25
2.2028629779815674,0.13,0.01,-0.05,0.13
2.213958978652954,-0.02,-0.04,0.01,0.04
2.2231569290161133,-0.15,0.02,0.07,0.16
2.2351021766662598,-0.22,0.1,0.5,0.55
2.2430319786071777,-0.11,-0.07,-0.81,0.82
2.2526509761810303,-0.03,0.08,-1.17,1.17
2.2628159523010254,-0.02,0.1,0.13,0.16
2.2726449966430664,0.09,-0.13,-0.04,0.16
2.284604072570801,0.13,-0.14,-0.73,0.75
2.294893980026245,0.02,0.0,-0.26,0.26
2.3022499084472656,-0.13,0.12,0.35,0.39
2.3152389526367188,-0.12,-0.01,1.33,1.33
2.32476806640625,-0.05,0.0,0.46,0.46
2.3345141410827637,0.06,-0.06,-0.76,0.76
2.3419671058654785,0.03,-0.03,0.07,0.08
2.3521039485931396,-0.11,0.09,-0.21,0.25
2.3646979331970215,-0.07,0.02,0.12,0.14
2.3718299865722656,0.22,-0.03,1.46,1.47
2.3844871520996094,0.33,-0.09,-0.37,0.5
2.3987598419189453,0.13,0.19,0.16,0.28
2.4017128944396973,-0.26,0.06,-0.03,0.26
2.4242401123046875,-0.34,-0.07,0.47,0.58
2.427371025085449,0.0,-0.14,-0.3,0.33
2.431650161743164,-0.35,0.14,-0.42,0.56
2.4413559436798096,-0.36,0.09,0.32,0.49
2.451569080352783,-0.07,-0.08,0.15,0.18
2.463655948638916,0.02,-0.05,-0.13,0.14
2.471424102783203,0.02,0.11,-0.27,0.29
2.4836111068725586,-0.04,0.06,-0.03,0.07
2.4964308738708496,0.02,-0.1,0.11,0.15
2.5010271072387695,-0.06,-0.02,0.03,0.06
2.51784610748291,-0.08,0.04,-0.04,0.09
2.5212111473083496,0.0,0.0,-0.04,0.04
2.5372819900512695,-0.07,-0.03,0.02,0.07
2.5459818840026855,-0.06,0.0,-0.03,0.06
2.5506670475006104,0.1,0.0,-0.1,0.14
2.5676920413970947,0.08,0.08,-0.01,0.11
2.5706520080566406,0.42,-0.02,-0.24,0.48
2.5871739387512207,0.72,-0.09,-0.13,0.73
2.595752000808716,0.37,-0.1,-0.11,0.39
2.600090980529785,0.11,0.27,0.53,0.6
2.610323905944824,-0.46,-0.02,0.36,0.58
2.6203019618988037,-0.52,-0.13,-0.14,0.55
2.632801055908203,-0.68,-0.01,-0.07,0.68
2.6475319862365723,-0.61,0.1,-0.01,0.61
2.6497349739074707,0.28,-0.18,-0.14,0.36
2.672008991241455,0.37,0.05,0.19,0.41
2.6790781021118164,0.37,0.17,-0.39,0.56
2.680744171142578,-0.31,0.05,-0.11,0.33
2.6897799968719482,-0.87,-0.06,0.19,0.89
2.6994380950927734,-0.25,-0.1,0.02,0.27
2.712233066558838,0.22,0.07,-0.14,0.27
2.719727039337158,-0.1,0.05,0.01,0.11
2.7324538230895996,-0.11,-0.07,-0.05,0.13
2.743070125579834,0.09,-0.05,0.03,0.1
2.749344825744629,-0.01,0.11,0.04,0.11
2.7593579292297363,0.05,0.02,0.17,0.17
2.7696139812469482,0.01,-0.05,0.19,0.19
2.78214693069458,-0.03,0.01,0.24,0.24
2.792814016342163,0.05,0.08,0.15,0.17
2.7989859580993652,0.18,-0.02,0.1,0.2
2.808833122253418,0.11,-0.04,0.22,0.24
2.8191871643066406,0.14,-0.03,0.24,0.27
2.831387996673584,0.06,0.0,0.27,0.27
2.8427181243896484,0.01,0.04,0.19,0.19
2.848660945892334,0.0,0.06,0.1,0.11
2.8584330081939697,-0.07,0.07,0.29,0.3
2.8689470291137695,0.15,0.0,0.59,0.6
2.8809750080108643,-0.28,0.03,-1.03,1.06
2.8908228874206543,-0.68,-0.05,0.53,0.86
2.8984429836273193,-0.93,-0.04,-0.89,1.28
2.90830397605896,-0.66,0.05,-0.32,0.73
2.9205219745635986,-0.26,0.16,-0.56,0.63
2.927842140197754,-0.02,0.04,-0.32,0.32
2.9380269050598145,0.26,-0.16,-0.35,0.46
2.9478631019592285,0.16,-0.04,-0.17,0.23
2.960458993911743,0.26,-0.08,-0.13,0.3
2.967719078063965,0.25,-0.06,0.05,0.26
2.980043888092041,0.12,-0.02,-0.13,0.17
2.9918689727783203,0.1,0.02,0.0,0.1
2.9971981048583984,-0.12,0.05,0.0,0.13
3.0075089931488037,-0.1,0.03,-0.06,0.12
3.0177159309387207,0.03,0.04,0.04,0.06
3.0304760932922363,0.15,-0.01,0.03,0.15
3.039541006088257,0.02,-0.02,0.0,0.02
3.047405958175659,-0.18,-0.01,0.14,0.22
3.0572140216827393,-0.1,0.0,-0.01,0.1
3.069460868835449,-0.04,0.01,-0.06,0.07
3.076840877532959,-0.07,0.03,0.02,0.07
3.087000846862793,-0.05,0.01,0.01,0.05
3.0968661308288574,-0.03,0.02,-0.05,0.06
3.1090688705444336,0.0,0.03,-0.03,0.04
3.11667799949646,0.01,-0.01,-0.04,0.04
3.1299891471862793,-0.02,-0.03,-0.03,0.04
3.1409988403320312,-0.02,0.03,-0.14,0.14
3.146450996398926,0.04,-0.07,-0.27,0.28
3.156506061553955,-0.14,0.08,0.19,0.24
3.1667840480804443,-0.11,0.03,0.21,0.23
3.1793529987335205,-0.13,0.0,0.14,0.19
3.1887099742889404,-0.13,-0.05,-0.03,0.14
3.1963770389556885,-0.15,0.05,-0.05,0.16
3.2060649394989014,-0.09,0.09,0.02,0.12
3.2183871269226074,-0.05,0.03,-0.05,0.07
3.2259249687194824,0.05,-0.07,-0.07,0.11
3.2359681129455566,0.2,-0.08,-0.14,0.25
3.2460289001464844,0.17,-0.06,-0.16,0.24
3.25795316696167,-0.1,0.01,0.06,0.11
3.265939950942993,-0.17,0.03,0.12,0.21
3.2787880897521973,-0.01,-0.01,0.02,0.02
3.29000186920166,0.02,0.01,-0.03,0.03
3.295395851135254,-0.06,0.05,-0.03,0.08
3.3054800033569336,-0.07,0.02,0.03,0.07
3.3150930404663086,-0.02,-0.02,0.03,0.04
3.327725887298584,-0.05,0.0,-0.02,0.05
3.33958101272583,-0.05,0.02,-0.02,0.05
3.3449010848999023,-0.02,0.01,-0.03,0.03
3.356566905975342,-0.05,-0.01,0.0,0.05
3.3657960891723633,-0.05,0.0,0.0,0.05
3.377403974533081,-0.02,0.02,-0.02,0.03
3.388293981552124,-0.02,0.02,-0.02,0.03
3.394641876220703,-0.03,0.0,-0.01,0.03
3.404801845550537,-0.05,-0.01,0.0,0.05
3.4162800312042236,-0.04,0.0,-0.01,0.04
3.4266090393066406,-0.04,0.01,-0.03,0.05
3.4374661445617676,-0.04,0.0,-0.01,0.04
3.444179058074951,-0.05,0.0,-0.01,0.05
3.454210042953491,-0.04,0.01,-0.01,0.04
3.464416980743408,-0.03,0.02,-0.01,0.03
3.476059913635254,-0.04,0.01,-0.01,0.04
3.487776041030884,-0.03,-0.01,0.0,0.03
3.494253158569336,-0.03,0.0,-0.02,0.03
3.5042049884796143,-0.03,0.01,-0.03,0.04
3.514294147491455,-0.04,0.01,-0.01,0.04
3.5256381034851074,-0.04,0.0,-0.01,0.04
3.5370869636535645,-0.03,0.0,-0.01,0.03
3.543503999710083,-0.03,0.0,-0.01,0.03
3.554672956466675,-0.03,0.0,-0.01,0.03
3.565237045288086,-0.03,0.01,-0.01,0.03
3.5750110149383545,-0.03,0.01,-0.02,0.03
3.586501121520996,-0.03,0.01,-0.01,0.03
3.5930850505828857,-0.05,0.0,-0.01,0.05
3.60351300239563,-0.04,0.01,-0.02,0.04
3.615891933441162,-0.04,0.0,-0.03,0.05
3.624959945678711,-0.04,0.0,-0.01,0.04
3.6360740661621094,-0.03,-0.01,0.0,0.03
3.6431920528411865,-0.03,0.01,-0.01,0.03
3.6535000801086426,-0.04,0.0,-0.02,0.04
3.6650569438934326,-0.04,0.0,-0.01,0.04
3.6738390922546387,-0.04,0.0,-0.01,0.04
3.6848011016845703,-0.04,0.0,-0.01,0.04
3.692638874053955,-0.03,0.0,-0.01,0.03
3.702775001525879,-0.05,0.0,-0.01,0.05
3.7149529457092285,-0.04,0.0,-0.01,0.04
3.724177837371826,-0.04,0.01,0.0,0.04
3.7362351417541504,-0.04,0.01,-0.01,0.04
3.7419939041137695,-0.03,0.01,0.0,0.03
3.7523140907287598,-0.04,0.0,0.0,0.04
3.764206886291504,-0.04,0.0,-0.01,0.04
3.773108959197998,-0.04,0.0,-0.01,0.04
3.7851171493530273,-0.04,0.0,-0.02,0.04
3.7918169498443604,-0.04,0.01,-0.01,0.04
3.8040051460266113,-0.03,0.0,-0.01,0.03
3.8135910034179688,-0.03,0.01,-0.01,0.03
3.823403835296631,-0.03,0.0,0.0,0.03
3.836639881134033,-0.03,0.0,-0.01,0.03
3.8414909839630127,-0.04,0.0,-0.02,0.04
3.8515849113464355,-0.05,0.0,-0.01,0.05
3.863431930541992,-0.04,0.0,-0.01,0.04
3.8712010383605957,-0.04,0.01,0.0,0.04
3.881443977355957,-0.04,0.0,0.0,0.04
3.891386032104492,-0.04,0.01,-0.01,0.04
3.9038569927215576,-0.03,0.0,-0.01,0.03
3.9121460914611816,-0.03,0.0,-0.01,0.03
3.9227230548858643,-0.04,0.01,-0.01,0.04
3.9344780445098877,-0.04,0.01,-0.01,0.04
3.940865993499756,-0.04,0.0,-0.02,0.04
3.9510819911956787,-0.04,0.0,-0.01,0.04
3.9631481170654297,-0.04,0.01,-0.01,0.04
3.9727730751037598,-0.03,0.01,0.0,0.03
3.9872031211853027,-0.04,0.0,-0.02,0.04
3.9906070232391357,-0.03,0.01,-0.02,0.03
4.000622034072876,-0.04,0.0,-0.01,0.04
4.011867046356201,-0.04,0.0,-0.01,0.04
4.022390842437744,-0.03,0.0,-0.02,0.03
4.034402847290039,-0.03,0.01,-0.01,0.03
4.039934158325195,-0.04,0.01,-0.01,0.04
4.050207138061523,-0.03,0.01,-0.01,0.03
4.062515020370483,-0.04,-0.01,-0.01,0.04
4.071939945220947,-0.03,-0.01,-0.02,0.03
4.0834059715271,-0.04,0.01,-0.02,0.04
4.0898449420928955,-0.03,0.01,-0.01,0.03
4.100168943405151,-0.04,0.0,-0.01,0.04
4.109998941421509,-0.03,0.0,-0.01,0.03
4.121685028076172,-0.04,0.0,-0.01,0.04
4.134768962860107,-0.03,0.01,-0.01,0.03
4.13941502571106,-0.04,0.0,-0.01,0.04
4.149091958999634,-0.04,0.0,-0.01,0.04
4.159427165985107,-0.04,0.01,-0.01,0.04
4.170660018920898,-0.04,0.01,-0.01,0.04
4.183978080749512,-0.03,0.01,-0.01,0.03
4.188959121704102,-0.03,0.0,-0.01,0.03
4.199585914611816,-0.04,0.0,-0.03,0.05
4.212047100067139,-0.04,-0.01,-0.01,0.04
4.220961093902588,-0.03,0.0,-0.01,0.03
4.2339301109313965,-0.03,0.0,-0.01,0.03
4.238674163818359,-0.03,0.01,-0.01,0.03
4.2493250370025635,-0.04,0.0,-0.01,0.04
4.261090040206909,-0.03,0.01,-0.01,0.03
4.270371913909912,-0.04,0.01,-0.01,0.04
4.280982971191406,-0.04,0.01,-0.01,0.04
4.288406848907471,-0.04,0.01,-0.02,0.04
4.2988481521606445,-0.03,0.01,-0.01,0.03
4.309454917907715,-0.03,0.01,-0.01,0.03
4.3208160400390625,-0.04,0.02,-0.02,0.04
4.332284927368164,-0.04,0.01,-0.02,0.04
4.337813854217529,-0.04,0.0,-0.02,0.04
4.348226070404053,-0.04,0.0,-0.02,0.04
4.360597133636475,-0.03,0.0,-0.02,0.03
4.368198871612549,-0.04,0.01,-0.01,0.04
4.377678871154785,-0.04,0.0,-0.02,0.04
4.388200998306274,-0.03,0.01,-0.01,0.03
4.399245023727417,-0.04,0.01,-0.01,0.04
4.409226894378662,-0.04,0.0,-0.01,0.04
4.419203042984009,-0.03,0.0,-0.01,0.03
4.429401874542236,-0.04,0.0,-0.02,0.04
4.437504053115845,-0.05,0.0,-0.02,0.05
4.447950839996338,-0.04,0.01,-0.01,0.04
4.458652019500732,-0.04,0.01,-0.01,0.04
4.4691338539123535,-0.04,0.0,-0.01,0.04
4.4806809425354,-0.04,0.0,-0.01,0.04
4.48710298538208,-0.03,0.0,0.0,0.03
4.4972639083862305,-0.03,0.0,0.0,0.03
4.510370969772339,-0.04,0.0,-0.01,0.04
4.5188889503479,-0.05,0.0,-0.01,0.05
4.529120922088623,-0.04,0.01,-0.01,0.04
4.536751985549927,-0.03,0.0,-0.01,0.03
4.548074960708618,-0.04,-0.01,-0.01,0.04
4.557945013046265,-0.04,0.0,0.0,0.04
4.568353176116943,-0.03,0.0,-0.01,0.03
4.582093954086304,-0.04,0.01,-0.01,0.04
4.586161136627197,-0.04,0.0,-0.02,0.04
4.596290111541748,-0.05,0.0,0.0,0.05
4.606084823608398,-0.04,0.0,-0.01,0.04
4.616990089416504,-0.04,0.0,-0.01,0.04
4.627001047134399,-0.03,0.0,-0.01,0.03
4.635558128356934,-0.04,-0.01,-0.01,0.04
4.6475348472595215,-0.04,0.0,-0.01,0.04
4.657502174377441,-0.03,0.0,-0.01,0.03
4.6674628257751465,-0.04,0.0,-0.01,0.04
4.67894983291626,-0.03,0.01,-0.01,0.03
4.68524694442749,-0.03,0.0,-0.01,0.03
4.695220947265625,-0.04,-0.01,-0.01,0.04
4.706450939178467,-0.04,0.0,-0.01,0.04
4.716568946838379,-0.03,0.0,-0.01,0.03
4.728230953216553,-0.03,0.0,-0.01,0.03
4.738402843475342,-0.04,0.01,-0.02,0.04
4.744951963424683,-0.04,0.0,-0.02,0.04
4.7574169635772705,-0.04,0.0,-0.01,0.04
4.766439914703369,-0.04,0.0,-0.01,0.04
4.776705980300903,-0.04,0.0,-0.01,0.04
4.785298824310303,-0.03,0.01,-0.01,0.03
4.797597885131836,-0.04,0.0,-0.01,0.04
4.804519176483154,-0.04,0.0,-0.01,0.04
4.816135883331299,-0.03,0.01,-0.01,0.03
4.824206829071045,-0.03,0.01,-0.01,0.03
4.8344011306762695,-0.04,0.0,-0.01,0.04
4.845614910125732,-0.04,0.01,-0.01,0.04
4.856693983078003,-0.04,-0.01,-0.02,0.04
4.866305828094482,-0.04,0.0,-0.01,0.04
4.877635955810547,-0.03,0.0,-0.01,0.03
4.8837409019470215,-0.03,0.01,-0.01,0.03
4.896453857421875,-0.03,0.0,-0.01,0.03
4.9042768478393555,-0.03,0.0,-0.01,0.03
4.916879177093506,-0.04,0.01,-0.01,0.04
4.927950859069824,-0.03,0.0,-0.01,0.03
4.934523105621338,-0.04,0.0,-0.01,0.04
4.946910858154297,-0.04,0.0,-0.02,0.04
4.953886032104492,-0.03,0.0,-0.01,0.03
4.966192960739136,-0.04,0.0,-0.02,0.04
4.97969388961792,-0.04,0.0,-0.01,0.04
4.983367919921875,-0.04,0.01,-0.01,0.04
4.993726015090942,-0.03,0.0,-0.02,0.03
5.0049638748168945,-0.03,0.01,-0.01,0.03
5.015161991119385,-0.03,0.0,-0.02,0.03
5.026365041732788,-0.04,0.0,-0.02,0.04
5.03326416015625,-0.04,0.0,-0.01,0.04
5.043140888214111,-0.04,0.0,-0.01,0.04
5.055446147918701,-0.04,0.0,0.0,0.04
5.0651021003723145,-0.04,0.01,0.0,0.04
5.075822830200195,-0.04,0.01,-0.01,0.04
5.08286190032959,-0.03,0.01,-0.02,0.03
5.0926008224487305,-0.03,0.0,-0.02,0.03
5.1048431396484375,-0.03,0.01,-0.01,0.03
5.114728927612305,-0.04,0.0,-0.01,0.04
5.126633167266846,-0.04,0.0,-0.02,0.04
5.132717132568359,-0.03,0.0,-0.01,0.03
5.142305850982666,-0.03,0.0,-0.01,0.03
5.155011177062988,-0.04,0.0,0.0,0.04
5.162558078765869,-0.03,0.0,-0.02,0.03
5.1721649169921875,-0.03,0.01,-0.01,0.03
5.182405948638916,-0.03,0.0,0.0,0.03
5.1953301429748535,-0.04,0.01,-0.02,0.04
5.202271938323975,-0.03,0.0,-0.01,0.03
5.2136688232421875,-0.04,0.0,-0.01,0.04
5.2257490158081055,-0.02,0.0,-0.02,0.02
5.231660842895508,-0.03,0.0,-0.01,0.03
5.241764068603516,-0.03,0.0,-0.01,0.03
5.251923084259033,-0.03,0.01,-0.01,0.03
5.2644360065460205,-0.04,0.0,-0.02,0.04
5.275538921356201,-0.03,0.01,-0.02,0.03
5.281434059143066,-0.04,0.01,-0.01,0.04
5.2913498878479,-0.03,0.0,-0.01,0.03
5.304081916809082,-0.04,0.01,-0.02,0.04
5.311187028884888,-0.03,0.0,-0.01,0.03
5.3208699226379395,-0.03,0.0,-0.01,0.03
5.3317718505859375,-0.04,0.0,0.0,0.04
5.3438169956207275,-0.03,0.0,-0.01,0.03
5.352880001068115,-0.03,0.01,-0.02,0.03
5.362892150878906,-0.03,0.01,-0.01,0.03
5.372241973876953,-0.04,0.0,-0.01,0.04
5.380673885345459,-0.04,-0.01,-0.01,0.04
5.391006946563721,-0.03,0.0,-0.02,0.03
5.4033098220825195,-0.04,0.01,-0.01,0.04
5.410907030105591,-0.03,0.0,-0.01,0.03
5.420251846313477,-0.03,0.0,-0.01,0.03
5.432654857635498,-0.04,0.0,-0.01,0.04
5.442293167114258,-0.03,0.01,-0.01,0.03
5.4517011642456055,-0.03,0.0,-0.01,0.03
5.46229100227356,-0.03,0.0,-0.02,0.03
5.473721981048584,-0.03,0.01,-0.02,0.03
5.480094909667969,-0.04,0.0,-0.01,0.04
5.489995956420898,-0.03,0.0,-0.02,0.03
5.502542972564697,-0.04,0.0,-0.01,0.04
5.511094093322754,-0.04,0.0,-0.01,0.04
5.52207612991333,-0.03,0.01,-0.02,0.03
5.529624938964844,-0.03,0.0,-0.01,0.03
5.539901971817017,-0.02,0.0,-0.01,0.02
5.551862955093384,-0.04,0.01,-0.01,0.04
5.561648845672607,-0.04,0.0,-0.01,0.04
5.5750720500946045,-0.03,0.0,-0.01,0.03
5.579406023025513,-0.04,0.0,-0.02,0.04
5.589366912841797,-0.03,0.01,-0.03,0.04
5.601428031921387,-0.03,0.01,-0.02,0.03
5.611490964889526,-0.04,0.0,-0.01,0.04
5.62389612197876,-0.03,0.0,-0.02,0.03
5.632853031158447,-0.03,0.01,-0.02,0.03
5.642966985702515,-0.02,0.0,-0.01,0.02
5.654996871948242,-0.03,0.0,-0.01,0.03
5.6649041175842285,-0.04,0.01,-0.01,0.04
5.67586088180542,-0.03,0.01,-0.01,0.03
5.6824188232421875,-0.03,0.01,-0.01,0.03
5.692440032958984,-0.03,0.0,-0.02,0.03
5.7049241065979,-0.04,0.0,-0.01,0.04
5.713605880737305,-0.04,0.01,-0.01,0.04
5.724931955337524,-0.04,0.01,-0.01,0.04
5.732008934020996,-0.03,0.01,-0.01,0.03
5.742877006530762,-0.03,0.01,-0.01,0.03
5.7534661293029785,-0.03,0.0,-0.01,0.03
5.7637038230896,-0.03,0.0,-0.02,0.03
5.775528907775879,-0.03,0.01,-0.01,0.03
5.781581878662109,-0.03,0.0,-0.01,0.03
5.792459011077881,-0.03,0.0,-0.01,0.03
5.803526878356934,-0.03,0.01,-0.01,0.03
5.813541889190674,-0.03,0.0,-0.02,0.03
5.824923038482666,-0.03,0.0,-0.01,0.03
5.831527948379517,-0.04,0.02,-0.02,0.04
5.841447830200195,-0.03,0.01,-0.02,0.03
5.8536858558654785,-0.03,0.01,-0.01,0.03
5.8635640144348145,-0.04,0.01,-0.01,0.04
5.877239942550659,-0.03,0.01,-0.01,0.03
5.881011009216309,-0.03,0.01,-0.02,0.03
5.891078948974609,-0.03,0.0,-0.01,0.03
5.90251898765564,-0.03,0.0,-0.01,0.03
5.913254976272583,-0.04,0.0,-0.01,0.04
5.9300971031188965,-0.03,0.0,-0.02,0.03
5.93169903755188,-0.03,0.01,-0.01,0.03
5.940729141235352,-0.03,0.0,-0.01,0.03
5.9509758949279785,-0.03,0.01,-0.01,0.03
5.963160037994385,-0.03,0.0,-0.01,0.03
5.974761009216309,-0.04,0.0,-0.01,0.04
5.98074197769165,-0.04,0.01,-0.02,0.04
5.993412017822266,-0.03,0.01,-0.01,0.03
6.000278949737549,-0.04,0.01,-0.01,0.04
6.01425313949585,-0.03,0.0,-0.01,0.03
6.0261499881744385,-0.03,0.01,-0.02,0.03
6.030133008956909,-0.03,0.0,0.0,0.03
6.040217876434326,-0.03,0.0,-0.01,0.03
6.050328016281128,-0.04,0.0,-0.01,0.04
6.063568115234375,-0.03,0.01,-0.01,0.03
6.072796821594238,-0.03,0.01,-0.02,0.03
6.079874038696289,-0.03,0.01,-0.02,0.03
6.08975887298584,-0.04,0.01,-0.02,0.04
6.102082967758179,-0.03,0.0,0.0,0.03
6.111598968505859,-0.03,0.0,-0.01,0.03
6.123188018798828,-0.03,0.01,0.0,0.03
6.1292500495910645,-0.03,0.01,-0.01,0.03
6.1413350105285645,-0.03,0.0,-0.01,0.03
6.15103006362915,-0.03,-0.01,-0.01,0.03
6.161416053771973,-0.03,0.0,-0.01,0.03
6.173017978668213,-0.03,0.01,-0.02,0.03
6.179064989089966,-0.03,0.01,-0.01,0.03
6.189082145690918,-0.03,0.01,-0.02,0.03
6.201432943344116,-0.04,0.0,-0.02,0.04
6.211205005645752,-0.03,0.0,-0.02,0.03
6.223374843597412,-0.03,0.0,-0.01,0.03
6.228871822357178,-0.04,0.0,-0.01,0.04
6.241176128387451,-0.03,0.01,-0.02,0.03
6.250089168548584,-0.03,0.01,-0.01,0.03
6.261325836181641,-0.04,0.01,-0.01,0.04
6.273242950439453,-0.03,0.0,-0.01,0.03
6.278475999832153,-0.03,0.0,-0.02,0.03
6.28839111328125,-0.03,0.0,-0.01,0.03
6.300398826599121,-0.03,0.01,-0.01,0.03
6.3104071617126465,-0.03,0.01,-0.02,0.03
6.322581052780151,-0.03,0.0,-0.01,0.03
6.327960968017578,-0.03,0.0,-0.02,0.03
6.338106155395508,-0.04,0.01,-0.02,0.04
6.34839391708374,-0.04,0.0,-0.02,0.04
6.360870838165283,-0.03,-0.02,-0.02,0.04
6.371243000030518,-0.03,-0.01,-0.02,0.03
6.377673149108887,-0.02,0.02,0.03,0.04
6.388090133666992,-0.04,0.05,-0.12,0.13
6.400267124176025,-0.01,-0.08,-0.09,0.12
6.409610986709595,-0.03,0.02,0.01,0.03
6.421306133270264,-0.02,0.03,-0.03,0.04
6.42753005027771,-0.02,0.02,-0.05,0.05
6.43747615814209,-0.01,-0.03,0.07,0.07
6.447732925415039,-0.06,0.02,0.0,0.06
6.4573211669921875,-0.05,0.02,0.09,0.1
6.467132091522217,-0.03,0.0,0.04,0.05
6.47727108001709,-0.05,-0.01,0.02,0.05
6.48953104019165,-0.06,0.02,-0.07,0.09
6.4992570877075195,0.05,0.0,-0.09,0.1
6.508800983428955,0.01,0.0,-0.06,0.06
6.519461154937744,-0.07,0.01,-0.02,0.07
6.527585029602051,-0.03,-0.01,0.02,0.03
6.536643981933594,-0.03,-0.01,0.03,0.04
6.549445152282715,-0.05,0.0,0.0,0.05
6.556985855102539,-0.04,0.01,0.02,0.04
6.566537857055664,-0.02,-0.01,-0.03,0.03
6.57637095451355,-0.04,-0.01,-0.02,0.04
6.586885929107666,-0.03,0.01,0.0,0.03
6.598372936248779,-0.02,0.01,-0.03,0.03
6.606542110443115,-0.03,-0.01,-0.02,0.03
6.616255044937134,-0.03,0.0,-0.02,0.03
6.626058101654053,-0.02,0.01,-0.03,0.03
6.637789964675903,-0.02,0.02,-0.02,0.03
6.645846843719482,-0.03,-0.01,-0.01,0.03
6.658050060272217,-0.04,-0.01,-0.02,0.04
6.667850971221924,-0.04,0.0,0.0,0.04
6.6756720542907715,-0.04,0.01,-0.01,0.04
6.68608283996582,-0.03,0.01,-0.02,0.03
6.69769811630249,-0.03,0.0,-0.02,0.03
6.707152843475342,-0.03,0.01,-0.01,0.03
6.718026161193848,-0.02,0.01,-0.02,0.03
6.7249860763549805,-0.02,0.01,-0.03,0.03
6.736527919769287,-0.02,0.01,-0.03,0.03
6.7478461265563965,-0.02,0.0,-0.02,0.02
6.755506992340088,-0.03,-0.01,0.0,0.03
6.765033006668091,-0.04,0.0,0.0,0.04
6.774902820587158,-0.04,0.01,-0.01,0.04
6.785109996795654,-0.03,0.01,0.01,0.03
6.797865867614746,-0.02,0.0,-0.03,0.03
6.806730031967163,-0.02,0.0,-0.01,0.02
6.820489883422852,-0.02,0.01,-0.05,0.05
6.824635982513428,-0.03,0.01,-0.02,0.03
6.834460020065308,-0.02,0.0,-0.03,0.03
6.846873044967651,-0.04,0.01,0.0,0.04
6.854353904724121,-0.04,0.0,0.01,0.04
6.864657878875732,-0.05,-0.01,0.0,0.05
6.874451160430908,-0.03,0.0,-0.01,0.03
6.886149883270264,-0.03,0.01,-0.01,0.03
6.896509170532227,-0.02,0.0,-0.03,0.03
6.904301166534424,-0.02,0.0,-0.01,0.02
6.913898944854736,-0.02,0.01,-0.02,0.03
6.925766944885254,-0.03,0.01,-0.02,0.03
6.935151100158691,-0.03,0.01,0.0,0.03
6.945907115936279,-0.03,0.0,-0.01,0.03
6.955327033996582,-0.03,0.0,-0.02,0.03
6.966892957687378,-0.03,0.01,-0.02,0.03
6.973823070526123,-0.02,0.0,-0.01,0.02
6.9840099811553955,-0.03,-0.01,-0.01,0.03
6.995830059051514,-0.03,0.01,-0.02,0.03
7.005367040634155,-0.02,0.0,-0.02,0.02
7.016541957855225,-0.03,0.0,-0.01,0.03
7.023252964019775,-0.03,-0.01,-0.02,0.03
7.033221006393433,-0.04,0.0,-0.01,0.04
7.045012950897217,-0.04,0.0,0.0,0.04
7.05440092086792,-0.04,-0.01,-0.01,0.04
7.066596984863281,-0.03,0.0,-0.01,0.03
7.072898864746094,-0.03,0.0,-0.02,0.03
7.082826137542725,-0.02,0.01,-0.02,0.03
7.095344066619873,-0.03,0.0,-0.01,0.03
7.102905988693237,-0.02,-0.01,-0.01,0.02
7.112599849700928,-0.03,0.0,-0.01,0.03
7.1223578453063965,-0.03,0.0,-0.01,0.03
7.134843826293945,-0.02,0.0,-0.01,0.02
7.146113872528076,-0.03,0.01,-0.02,0.03
7.153964996337891,-0.02,0.01,-0.02,0.03
7.16369104385376,-0.02,0.0,0.0,0.02
7.172111988067627,-0.03,0.0,0.0,0.03
7.182435035705566,-0.03,0.0,-0.01,0.03
7.19569206237793,-0.04,0.01,-0.02,0.04
7.203733921051025,-0.03,0.0,-0.02,0.03
7.214302062988281,-0.03,0.0,-0.02,0.03
7.2218241691589355,-0.03,0.0,-0.01,0.03
7.232105016708374,-0.03,0.0,0.0,0.03
7.244495868682861,-0.04,0.0,-0.03,0.05
7.253675937652588,-0.02,0.02,-0.03,0.04
7.263952016830444,-0.03,0.01,-0.03,0.04
7.271661996841431,-0.04,0.04,-0.02,0.06
7.283483028411865,-0.02,-0.01,0.0,0.02
7.293946981430054,-0.02,-0.05,-0.01,0.05
7.301887035369873,-0.03,0.0,0.0,0.03
7.311461925506592,-0.04,0.05,-0.03,0.07
7.321346044540405,0.01,0.01,-0.04,0.04
7.331406116485596,-0.03,-0.02,-0.01,0.03
7.343508958816528,-0.05,0.0,0.02,0.05
7.3532938957214355,-0.03,0.01,-0.02,0.03
7.365681171417236,-0.02,0.01,-0.01,0.02
7.37080717086792,-0.05,0.01,-0.01,0.05
7.383396148681641,-0.04,0.0,0.0,0.04
7.391024112701416,-0.02,0.0,-0.02,0.02
7.403627872467041,-0.02,0.01,-0.03,0.03
7.413920879364014,-0.03,0.0,-0.01,0.03
7.420734882354736,-0.03,0.0,0.0,0.03
7.433215141296387,-0.03,-0.01,0.0,0.03
7.440648078918457,-0.03,0.01,0.0,0.03
7.453235149383545,-0.02,0.01,0.01,0.02
7.466879844665527,-0.04,0.0,-0.01,0.04
7.47002100944519,-0.04,0.0,0.0,0.04
7.480255126953125,-0.03,0.01,-0.02,0.03
7.492776870727539,-0.02,0.02,-0.03,0.04
7.499936103820801,-0.03,0.01,-0.03,0.04
7.509789943695068,-0.02,0.01,-0.03,0.03
7.5200581550598145,-0.03,0.0,-0.02,0.03
7.532685041427612,-0.03,-0.01,-0.03,0.04
7.541622161865234,-0.02,-0.01,-0.02,0.03
7.549367904663086,-0.04,0.0,0.0,0.04
7.559736967086792,-0.03,0.02,-0.03,0.04
7.570122003555298,-0.02,0.01,-0.02,0.03
7.581938982009888,-0.04,0.0,-0.01,0.04
7.588985919952393,-0.04,0.0,-0.01,0.04
7.601853847503662,-0.02,-0.01,-0.01,0.02
7.614099979400635,-0.02,0.01,-0.02,0.03
7.619307041168213,-0.03,0.02,-0.02,0.04
7.634824991226196,-0.02,0.01,-0.01,0.02
7.639631032943726,-0.03,0.0,-0.02,0.03
7.654240131378174,-0.04,0.0,-0.01,0.04
7.662684917449951,-0.03,-0.01,-0.01,0.03
7.6689980030059814,-0.03,0.0,-0.02,0.03
7.678877830505371,-0.03,0.02,-0.02,0.04
7.6909589767456055,-0.03,0.0,-0.02,0.03
7.699204921722412,-0.03,0.0,-0.02,0.03
7.70960807800293,-0.03,0.0,-0.01,0.03
7.718317985534668,-0.03,0.0,-0.01,0.03
7.728418827056885,-0.03,0.0,-0.02,0.03
7.740936040878296,-0.03,0.01,-0.01,0.03
7.749878883361816,-0.03,0.0,-0.02,0.03
7.7587339878082275,-0.02,0.0,-0.01,0.02
7.76781702041626,-0.02,0.0,-0.02,0.02
7.778404951095581,-0.03,0.0,-0.01,0.03
7.789736032485962,-0.03,0.01,-0.01,0.03
7.798861980438232,-0.03,0.01,-0.01,0.03
7.811272144317627,-0.03,0.0,-0.01,0.03
7.817702054977417,-0.03,0.01,-0.02,0.03
7.827409982681274,-0.03,0.0,-0.01,0.03
7.838978052139282,-0.03,0.01,-0.02,0.03
7.847452163696289,-0.03,0.0,-0.02,0.03
7.857280969619751,-0.03,0.01,-0.02,0.03
7.867277145385742,-0.04,0.01,-0.02,0.04
7.879461050033569,-0.03,0.0,-0.01,0.03
7.887840032577515,-0.03,0.0,-0.01,0.03
7.898082971572876,-0.03,0.0,-0.02,0.03
7.912610054016113,-0.03,0.0,-0.02,0.03
7.916965961456299,-0.02,0.01,-0.01,0.02
7.927229881286621,-0.03,0.0,-0.02,0.03
7.937229156494141,-0.03,0.0,-0.02,0.03
7.948364019393921,-0.04,0.0,-0.01,0.04
7.96065616607666,-0.03,0.0,-0.01,0.03
7.966558933258057,-0.03,0.0,-0.02,0.03
7.976361989974976,-0.03,0.01,-0.02,0.03
7.987596035003662,-0.03,0.01,-0.02,0.03
7.998517990112305,-0.02,0.0,-0.01,0.02
8.011466979980469,-0.03,0.0,-0.01,0.03
8.01628303527832,-0.03,0.0,-0.02,0.03
8.026443004608154,-0.03,0.01,-0.02,0.03
8.037807941436768,-0.02,0.01,-0.02,0.03
8.046028137207031,-0.03,0.01,-0.02,0.03
8.055999040603638,-0.04,-0.01,-0.02,0.04
8.066184043884277,-0.03,0.0,-0.02,0.03
8.077147006988525,-0.03,0.0,-0.01,0.03
8.087388038635254,-0.02,0.0,-0.02,0.02
8.09696102142334,-0.03,0.0,-0.02,0.03
8.109489917755127,-0.03,0.01,-0.01,0.03
8.115524053573608,-0.03,0.0,-0.02,0.03
8.125348091125488,-0.03,0.0,-0.02,0.03
8.137040138244629,-0.03,0.01,-0.02,0.03
8.14689016342163,-0.03,0.0,-0.02,0.03
8.15984296798706,-0.03,0.01,-0.03,0.04
8.165061950683594,-0.03,0.0,-0.02,0.03
8.17513394355774,-0.02,0.01,-0.02,0.03
8.185155868530273,-0.02,0.01,-0.02,0.03
8.196583986282349,-0.03,0.0,-0.02,0.03
8.210032939910889,-0.02,0.0,-0.02,0.02
8.214661121368408,-0.03,0.0,-0.02,0.03
8.22462511062622,-0.03,-0.01,-0.02,0.03
8.23632001876831,-0.02,0.0,-0.02,0.02
8.246381044387817,-0.03,0.0,-0.01,0.03
8.257912158966064,-0.02,0.01,-0.01,0.02
8.264848947525024,-0.03,0.01,-0.02,0.03
8.27491807937622,-0.03,0.0,-0.01,0.03
8.285640001296997,-0.03,0.0,-0.01,0.03
8.295685052871704,-0.03,0.0,-0.01,0.03
8.308290004730225,-0.02,0.01,0.0,0.02
8.3142409324646,-0.03,0.01,-0.01,0.03
8.324022054672241,-0.03,0.0,-0.01,0.03
8.336817979812622,-0.02,0.0,-0.02,0.02
8.345870018005371,-0.03,0.0,-0.02,0.03
8.356343984603882,-0.02,0.0,-0.02,0.02
8.363977909088135,-0.03,0.01,-0.02,0.03
8.374023914337158,-0.03,0.0,-0.01,0.03
8.384865999221802,-0.03,0.0,-0.01,0.03
8.395237922668457,-0.03,0.0,-0.01,0.03
8.40920114517212,-0.03,0.01,-0.01,0.03
8.41332197189331,-0.03,0.0,-0.02,0.03
8.423431873321533,-0.03,0.0,-0.02,0.03
8.435742855072021,-0.02,0.01,-0.01,0.02
8.443061828613281,-0.02,0.01,-0.01,0.02
8.453626155853271,-0.02,0.0,-0.02,0.02
8.463788032531738,-0.03,0.0,-0.01,0.03
8.475637912750244,-0.02,-0.01,-0.01,0.02
8.485066890716553,-0.02,0.01,-0.02,0.03
8.495453834533691,-0.02,0.0,-0.01,0.02
8.50569486618042,-0.03,0.0,-0.01,0.03
8.513085842132568,-0.02,0.0,-0.01,0.02
8.52304196357727,-0.02,0.0,-0.02,0.02
8.535099029541016,-0.03,0.0,-0.03,0.04
8.545047998428345,-0.02,0.0,-0.01,0.02
8.552788972854614,-0.03,0.0,-0.01,0.03
8.562550067901611,-0.03,0.0,-0.02,0.03
8.574601173400879,-0.03,0.01,-0.02,0.03
8.583430051803589,-0.03,0.01,-0.01,0.03
8.59485387802124,-0.02,0.01,-0.01,0.02
8.607346057891846,-0.03,0.0,-0.01,0.03
8.612210988998413,-0.03,0.01,-0.01,0.03
8.62210202217102,-0.03,0.0,-0.02,0.03
8.634238004684448,-0.03,0.0,-0.03,0.04
8.644043922424316,-0.02,0.0,-0.02,0.02
8.656417846679688,-0.02,0.0,0.0,0.02
8.661880016326904,-0.03,0.01,-0.01,0.03
8.671818971633911,-0.03,0.0,-0.02,0.03
8.683795928955078,-0.03,0.0,-0.01,0.03
8.693091869354248,-0.03,0.0,-0.02,0.03
8.705212116241455,-0.02,0.01,-0.01,0.02
8.711690902709961,-0.03,0.0,-0.02,0.03
8.721465110778809,-0.02,-0.01,-0.02,0.03
8.73201608657837,-0.03,0.0,-0.01,0.03
8.74357295036316,-0.03,0.01,-0.01,0.03
8.75456190109253,-0.02,0.0,0.0,0.02
8.76114797592163,-0.02,0.01,-0.02,0.03
8.771167039871216,-0.03,0.0,-0.01,0.03
8.7828209400177,-0.03,0.0,-0.01,0.03
8.792171001434326,-0.03,0.0,-0.01,0.03
8.80771017074585,-0.03,0.0,-0.01,0.03
8.810451984405518,-0.03,0.0,-0.01,0.03
8.823174953460693,-0.02,0.01,-0.01,0.02
8.832365036010742,-0.02,0.01,-0.02,0.03
8.842116832733154,-0.03,0.0,0.0,0.03
8.854240894317627,-0.03,-0.01,-0.01,0.03
8.86037302017212,-0.03,-0.01,-0.02,0.03
8.870362043380737,-0.03,0.01,-0.01,0.03
8.880810022354126,-0.03,0.0,-0.02,0.03
8.89263105392456,-0.02,0.0,-0.01,0.02
8.905045986175537,-0.03,0.0,-0.02,0.03
8.909852027893066,-0.02,0.0,-0.02,0.02
8.920124053955078,-0.03,0.0,-0.02,0.03
8.93230390548706,-0.02,0.0,-0.02,0.02
8.940206050872803,-0.03,0.0,-0.01,0.03
8.94950795173645,-0.03,0.0,-0.01,0.03
8.959951877593994,-0.02,0.0,-0.01,0.02
8.971981048583984,-0.03,0.01,-0.01,0.03
8.98163104057312,-0.03,0.0,-0.01,0.03
8.991168975830078,-0.03,0.0,-0.02,0.03
9.003927946090698,-0.03,0.0,-0.01,0.03
9.009376049041748,-0.02,0.0,-0.02,0.02
9.019382953643799,-0.02,0.01,-0.01,0.02
9.03157901763916,-0.02,0.0,-0.01,0.02
9.041144847869873,-0.03,0.0,-0.01,0.03
9.054463863372803,-0.02,0.01,-0.01,0.02
9.059176921844482,-0.03,0.0,-0.03,0.04
9.06463098526001,-0.03,0.0,-0.03,0.04
9.074923038482666,-0.03,0.01,-0.01,0.03
9.087585926055908,-0.02,0.0,-0.02,0.02
9.100096940994263,-0.03,0.0,-0.02,0.03
9.104460000991821,-0.02,0.0,-0.02,0.02
9.11628007888794,-0.02,0.0,-0.02,0.02
9.1251859664917,-0.02,0.0,-0.02,0.02
9.137259006500244,-0.03,0.01,-0.02,0.03
9.149981021881104,-0.02,0.01,-0.02,0.03
9.154500007629395,-0.03,-0.01,-0.02,0.03
9.166223049163818,-0.02,0.0,-0.01,0.02
9.174436092376709,-0.02,0.01,-0.01,0.02
9.186300992965698,-0.02,0.0,-0.01,0.02
9.202166080474854,-0.03,-0.01,-0.01,0.03
9.203780174255371,-0.03,0.0,-0.02,0.03
9.215873003005981,-0.02,0.01,-0.02,0.03
9.224162101745605,-0.02,0.0,-0.02,0.02
9.23515796661377,-0.02,0.01,-0.02,0.03
9.24745798110962,-0.02,0.0,-0.02,0.02
9.254029989242554,-0.02,-0.01,-0.02,0.03
9.268826961517334,-0.02,0.0,-0.01,0.02
9.275052070617676,-0.02,0.01,-0.01,0.02
9.285642147064209,-0.02,-0.01,-0.02,0.03
9.29762601852417,-0.02,0.0,-0.02,0.02
9.303351879119873,-0.02,0.01,-0.02,0.03
9.315865993499756,-0.02,0.01,-0.02,0.03
9.325109958648682,-0.02,0.0,-0.02,0.02
9.333346843719482,-0.03,0.0,-0.01,0.03
9.343178033828735,-0.03,0.0,-0.01,0.03
9.353145122528076,-0.02,0.0,0.0,0.02
9.363361835479736,-0.02,0.0,-0.01,0.02
9.375771045684814,-0.02,0.01,-0.01,0.02
9.384769916534424,-0.03,0.01,-0.01,0.03
9.394358158111572,-0.02,0.0,-0.01,0.02
9.402481079101562,-0.03,0.0,-0.02,0.03
9.413042068481445,-0.02,0.0,-0.01,0.02
9.424177169799805,-0.02,0.0,-0.02,0.02
9.434424877166748,-0.02,0.01,-0.03,0.03
9.44512414932251,-0.02,0.0,-0.01,0.02
9.452333927154541,-0.02,0.0,-0.01,0.02
9.462493896484375,-0.02,0.0,-0.01,0.02
9.473659992218018,-0.02,0.0,-0.01,0.02
9.48334789276123,-0.02,0.0,-0.01,0.02
9.499476909637451,-0.02,0.0,-0.01,0.02
9.501902103424072,-0.02,0.01,-0.02,0.03
9.512112140655518,-0.02,0.0,-0.01,0.02
9.524293899536133,-0.02,0.01,-0.02,0.03
9.533482074737549,-0.03,0.01,-0.02,0.03
9.543663024902344,-0.02,0.0,-0.02,0.02
9.55164098739624,-0.01,0.0,-0.02,0.02
9.562182903289795,-0.02,0.01,-0.02,0.03
9.5731680393219,-0.03,0.0,-0.02,0.03
9.583575010299683,-0.02,0.0,-0.01,0.02
9.594159126281738,-0.02,0.0,-0.01,0.02
9.60141396522522,-0.02,0.01,-0.01,0.02
9.611137866973877,-0.02,0.01,-0.01,0.02
9.623283863067627,-0.02,0.0,-0.01,0.02
9.63749885559082,-0.03,0.0,-0.01,0.03
9.652947902679443,-0.04,0.0,-0.01,0.04
9.6545729637146,-0.02,0.0,-0.02,0.02
9.664846897125244,-0.02,0.0,-0.01,0.02
9.67482304573059,-0.02,0.0,-0.02,0.02
9.686205863952637,-0.02,0.0,-0.02,0.02
9.695959091186523,-0.03,0.0,-0.01,0.03
9.704471111297607,-0.02,0.0,-0.01,0.02
9.714518070220947,-0.02,0.01,-0.02,0.03
9.725980043411255,-0.02,-0.01,-0.01,0.02
9.735533952713013,-0.02,-0.01,-0.01,0.02
9.746444940567017,-0.02,0.0,-0.01,0.02
9.754062175750732,-0.02,0.01,-0.02,0.03
9.764174938201904,-0.03,0.01,-0.02,0.03
9.77686882019043,-0.02,0.0,-0.01,0.02
9.784727096557617,-0.02,0.0,-0.01,0.02
9.796787023544312,-0.02,0.0,-0.03,0.03
9.804072856903076,-0.02,0.0,-0.02,0.02
9.816743850708008,-0.03,0.0,-0.01,0.03
9.824632167816162,-0.03,0.0,-0.01,0.03
9.835558891296387,-0.03,0.01,-0.01,0.03
9.847965002059937,-0.02,0.0,-0.01,0.02
9.853240013122559,-0.02,0.01,-0.02,0.03
9.863356113433838,-0.02,0.01,-0.02,0.03
9.87523889541626,-0.02,0.0,-0.02,0.02
9.885406017303467,-0.03,0.0,-0.01,0.03
9.898349046707153,-0.03,0.0,-0.01,0.03
9.903295040130615,-0.03,0.0,-0.02,0.03
9.913278102874756,-0.03,0.0,-0.01,0.03
9.925405979156494,-0.02,0.01,-0.02,0.03
9.932746887207031,-0.02,0.0,-0.02,0.02
9.942902088165283,-0.02,0.0,-0.01,0.02
9.952929973602295,-0.02,-0.01,-0.02,0.03
9.96326208114624,-0.02,0.0,-0.01,0.02
9.974573135375977,-0.02,0.0,-0.02,0.02
9.984981060028076,-0.01,0.01,-0.01,0.01
9.996799945831299,-0.02,0.01,-0.02,0.03
10.002274990081787,-0.02,0.0,-0.02,0.02
10.012487888336182,-0.02,0.01,-0.02,0.03
10.0225670337677,-0.02,0.0,-0.02,0.02
10.034554958343506,-0.02,0.0,-0.01,0.02
10.051858901977539,-0.02,0.01,-0.01,0.02
10.053041934967041,-0.02,0.0,-0.02,0.02
10.061861991882324,-0.02,0.0,-0.01,0.02
10.072268962860107,-0.02,0.0,-0.02,0.02
10.084147930145264,-0.02,-0.01,-0.02,0.03
10.099445819854736,-0.02,0.0,-0.02,0.02
10.101694107055664,-0.02,0.0,-0.02,0.02
10.111981868743896,-0.02,0.0,-0.01,0.02
10.123787879943848,-0.03,0.0,-0.01,0.03
10.133723020553589,-0.02,0.0,-0.02,0.02
10.146787166595459,-0.02,0.0,-0.01,0.02
10.151069164276123,-0.02,0.0,-0.01,0.02
10.161345958709717,-0.02,0.0,-0.01,0.02
10.172271013259888,-0.02,0.0,-0.01,0.02
10.183617115020752,-0.02,0.01,-0.02,0.03
10.195414066314697,-0.03,-0.01,-0.01,0.03
10.201161861419678,-0.02,0.0,-0.01,0.02
10.21114206314087,-0.02,0.0,-0.02,0.02
10.22340202331543,-0.02,0.01,-0.01,0.02
10.231058120727539,-0.02,0.01,-0.03,0.03
10.240699052810669,-0.03,0.01,-0.01,0.03
10.250688076019287,-0.03,0.0,-0.02,0.03
10.260668992996216,-0.03,0.0,-0.02,0.03
10.273097038269043,-0.02,0.0,-0.01,0.02
10.282654047012329,-0.01,0.0,-0.01,0.01
10.29586410522461,-0.02,0.0,-0.01,0.02
10.300256967544556,-0.02,0.0,-0.01,0.02
10.31020998954773,-0.02,0.01,-0.01,0.02
10.322428941726685,-0.02,-0.01,-0.01,0.02
10.330542087554932,-0.02,0.0,-0.02,0.02
10.34046196937561,-0.02,0.01,-0.02,0.03
10.350056171417236,-0.02,0.0,-0.02,0.02
10.360147953033447,-0.02,-0.01,-0.02,0.03
10.372251987457275,-0.02,0.0,-0.01,0.02
10.381561040878296,-0.02,0.0,-0.02,0.02
10.39409589767456,-0.03,0.0,-0.01,0.03
10.399788856506348,-0.02,0.0,-0.02,0.02
10.420445919036865,-0.02,0.0,0.0,0.02
10.423992156982422,-0.02,0.0,-0.01,0.02
10.42982292175293,-0.02,0.01,-0.01,0.02
10.439563989639282,-0.03,0.0,-0.02,0.03
10.449586868286133,-0.02,0.0,-0.03,0.03
10.4618239402771,-0.01,0.0,-0.02,0.02
10.47082805633545,-0.02,0.0,-0.02,0.02
10.481259822845459,-0.02,0.0,-0.01,0.02
10.492867946624756,-0.02,0.0,-0.01,0.02
10.49889612197876,-0.02,0.0,-0.01,0.02
10.509169101715088,-0.02,0.0,-0.02,0.02
10.521636009216309,-0.01,0.01,-0.01,0.01
10.529210090637207,-0.02,0.0,-0.02,0.02
10.538625955581665,-0.03,0.0,-0.01,0.03
10.548887014389038,-0.02,-0.01,-0.01,0.02
10.558663845062256,-0.02,0.0,-0.01,0.02
10.570902824401855,-0.02,-0.01,-0.02,0.03
10.578662872314453,-0.02,0.0,-0.02,0.02
10.588165044784546,-0.03,0.0,-0.02,0.03
10.59867000579834,-0.02,0.01,-0.01,0.02
10.608598947525024,-0.02,0.0,-0.02,0.02
10.620535850524902,-0.03,0.0,-0.02,0.03
10.629961013793945,-0.02,0.0,-0.02,0.02
10.640708923339844,-0.02,0.0,-0.02,0.02
10.647997856140137,-0.02,0.01,-0.02,0.03
10.658156871795654,-0.02,0.0,-0.01,0.02
10.669749021530151,-0.02,0.0,0.0,0.02
10.679954051971436,-0.02,0.0,-0.01,0.02
10.692741870880127,-0.02,0.01,-0.02,0.03
10.697640895843506,-0.03,-0.01,-0.02,0.03
10.707463026046753,-0.02,0.0,-0.01,0.02
10.71883487701416,-0.02,0.0,-0.02,0.02
10.729381084442139,-0.02,0.01,-0.02,0.03
10.742793083190918,-0.01,0.01,-0.01,0.01
10.747056007385254,-0.02,0.01,-0.01,0.02
10.757015943527222,-0.01,0.0,-0.01,0.01
10.767273902893066,-0.02,-0.01,-0.01,0.02
10.778733968734741,-0.02,-0.01,-0.01,0.02
10.790730953216553,-0.02,0.01,-0.01,0.02
10.796977996826172,-0.02,0.01,-0.02,0.03
10.806908130645752,-0.02,0.01,-0.01,0.02
10.819149017333984,-0.02,-0.01,-0.01,0.02
10.828902959823608,-0.03,-0.01,-0.01,0.03
10.840932846069336,-0.02,0.0,-0.01,0.02
10.846373081207275,-0.02,0.01,-0.01,0.02
10.856405973434448,-0.02,0.0,-0.01,0.02
10.866591930389404,-0.02,0.01,-0.01,0.02
10.879019021987915,-0.02,0.0,0.0,0.02
10.891129970550537,-0.02,0.0,-0.01,0.02
10.896468162536621,-0.03,0.01,-0.01,0.03
10.90827202796936,-0.02,0.01,-0.01,0.02
10.917725086212158,-0.02,0.0,-0.01,0.02
10.928566932678223,-0.01,0.0,-0.01,0.01
10.940654993057251,-0.02,0.01,-0.01,0.02
10.94611406326294,-0.02,0.0,-0.02,0.02
10.955748081207275,-0.03,0.0,-0.02,0.03
10.967857837677002,-0.02,0.0,-0.01,0.02
10.977044105529785,-0.02,0.0,-0.01,0.02
10.989439010620117,-0.02,0.0,-0.01,0.02
10.995735168457031,-0.02,0.0,-0.02,0.02
11.006983995437622,-0.02,0.0,-0.02,0.02
11.018388986587524,-0.01,0.01,-0.01,0.01
11.027184009552002,-0.01,0.01,0.0,0.01
11.036252975463867,-0.02,0.0,-0.02,0.02
11.045247077941895,-0.02,-0.01,-0.02,0.03
11.055474996566772,-0.02,0.0,-0.01,0.02
11.066118001937866,-0.02,0.0,-0.01,0.02
11.077160835266113,-0.02,0.0,-0.02,0.02
11.092159032821655,-0.01,0.01,-0.01,0.01
11.094722032546997,-0.02,0.01,-0.02,0.03
11.104803085327148,-0.02,-0.01,-0.01,0.02
11.119423866271973,-0.02,0.01,-0.02,0.03
11.126343965530396,-0.02,0.0,-0.02,0.02
11.135547161102295,-0.02,-0.01,-0.02,0.03
11.144543170928955,-0.01,0.0,-0.01,0.01
11.15664005279541,-0.02,0.01,-0.01,0.02
11.164106845855713,-0.02,0.02,-0.02,0.03
11.177196979522705,-0.02,0.0,-0.01,0.02
11.187335014343262,-0.03,-0.01,-0.02,0.03
11.19417405128479,-0.02,0.0,-0.02,0.02
11.204018115997314,-0.02,0.0,-0.01,0.02
11.216259956359863,-0.02,0.0,-0.02,0.02
11.225466966629028,-0.02,0.0,-0.01,0.02
11.236199855804443,-0.02,0.01,-0.01,0.02
11.243780136108398,-0.02,0.01,-0.01,0.02
11.255781173706055,-0.02,0.01,0.0,0.02
11.263752937316895,-0.02,0.02,-0.01,0.03
11.276188850402832,-0.02,0.0,-0.02,0.02
11.286828994750977,-0.03,-0.01,-0.02,0.03
11.293758869171143,-0.02,-0.01,0.0,0.02
11.30372405052185,-0.03,0.0,0.0,0.03
11.316151142120361,-0.02,0.01,-0.01,0.02
11.323371887207031,-0.02,0.02,-0.01,0.03
11.333280086517334,-0.02,0.0,0.0,0.02
11.34320592880249,-0.02,-0.01,-0.01,0.02
11.353353023529053,-0.02,0.0,-0.01,0.02
11.36425495147705,-0.02,0.0,-0.01,0.02
11.37458610534668,-0.02,0.0,-0.01,0.02
11.38954210281372,-0.02,0.01,-0.02,0.03
11.392662048339844,-0.02,0.0,-0.02,0.02
11.402694940567017,-0.02,0.0,-0.01,0.02
11.4153470993042,-0.02,0.01,-0.02,0.03
11.422679901123047,-0.01,0.01,-0.01,0.01
11.43255090713501,-0.02,0.01,-0.01,0.02
11.442584037780762,-0.02,0.01,-0.02,0.03
11.454133987426758,-0.03,0.0,-0.02,0.03
11.46467399597168,-0.03,-0.01,-0.01,0.03
11.47360610961914,-0.03,0.0,-0.01,0.03
11.48248291015625,-0.02,0.01,-0.01,0.02
11.492094993591309,0.0,0.01,-0.03,0.03
11.504480838775635,-0.01,0.0,-0.02,0.02
11.511822938919067,-0.02,0.0,-0.01,0.02
11.52384090423584,-0.02,-0.01,-0.01,0.02
11.535217046737671,-0.02,0.0,-0.01,0.02
11.541579961776733,-0.03,0.0,-0.01,0.03
11.553585052490234,-0.03,0.0,-0.02,0.03
11.563776969909668,-0.02,-0.01,-0.01,0.02
11.571363925933838,-0.02,0.0,-0.01,0.02
11.581496000289917,-0.02,0.0,-0.01,0.02
11.591747045516968,-0.02,0.01,-0.02,0.03
11.603945016860962,-0.01,0.01,-0.01,0.01
11.613379001617432,-0.02,0.01,-0.02,0.03
11.62283706665039,-0.02,-0.01,-0.02,0.03
11.634904861450195,-0.02,-0.01,-0.01,0.02
11.641232013702393,-0.03,-0.01,-0.02,0.03
11.651104927062988,-0.02,0.0,-0.02,0.02
11.661139965057373,-0.01,0.01,-0.02,0.02
11.672981023788452,-0.02,0.01,-0.01,0.02
11.686645984649658,-0.01,0.0,-0.02,0.02
11.69053602218628,-0.02,0.01,-0.02,0.03
11.70072317123413,-0.01,0.01,-0.02,0.02
11.713371992111206,-0.02,0.0,-0.01,0.02
11.721537113189697,-0.02,0.0,-0.01,0.02
11.734787940979004,-0.03,0.0,-0.02,0.03
11.740370035171509,-0.02,0.0,-0.01,0.02
11.750471115112305,-0.02,0.01,-0.02,0.03
11.760650157928467,-0.02,0.01,-0.01,0.02
11.772640943527222,-0.02,0.0,0.0,0.02
11.788200855255127,-0.02,0.01,-0.01,0.02
11.789846897125244,-0.02,0.0,-0.02,0.02
11.79957103729248,-0.02,0.0,-0.01,0.02
11.81229305267334,-0.02,-0.01,-0.02,0.03
11.821378946304321,-0.02,0.01,-0.02,0.03
11.832208156585693,-0.02,0.0,-0.01,0.02
11.839343070983887,-0.02,0.0,-0.01,0.02
11.851573944091797,-0.02,0.0,-0.02,0.02
11.861505031585693,-0.02,-0.01,-0.01,0.02
11.871211051940918,-0.02,0.0,-0.01,0.02
11.88407301902771,-0.02,0.01,-0.01,0.02
11.889050960540771,-0.02,0.01,-0.02,0.03
11.8991219997406,-0.02,0.01,-0.02,0.03
11.911380052566528,-0.01,0.01,-0.02,0.02
11.92097282409668,-0.02,0.01,-0.01,0.02
11.933856964111328,-0.02,0.0,-0.02,0.02
11.938898086547852,-0.01,0.0,-0.02,0.02
11.951004028320312,-0.02,0.0,-0.01,0.02
11.960469961166382,-0.02,0.01,-0.01,0.02
11.969860076904297,-0.02,0.01,-0.01,0.02
11.982380867004395,-0.02,0.0,-0.01,0.02
11.988370895385742,-0.02,-0.01,-0.01,0.02
11.998644828796387,-0.02,0.01,-0.02,0.03
12.011144161224365,-0.02,0.01,-0.01,0.02
12.018577098846436,-0.02,0.0,-0.02,0.02
12.028304100036621,-0.02,0.01,-0.02,0.03
12.038434028625488,-0.02,-0.01,-0.01,0.02
12.048654079437256,-0.02,0.0,-0.02,0.02
12.060905933380127,-0.01,-0.01,-0.02,0.02
12.069943904876709,-0.02,0.0,-0.02,0.02
12.081039905548096,-0.02,0.0,-0.02,0.02
12.087882041931152,-0.02,0.0,-0.01,0.02
12.098461151123047,-0.02,0.01,-0.02,0.03
12.110085010528564,-0.02,0.01,-0.01,0.02
12.119515895843506,-0.02,0.0,-0.01,0.02
12.133100032806396,-0.02,0.0,-0.01,0.02
12.137259006500244,-0.02,0.0,-0.01,0.02
12.147562026977539,-0.02,0.0,-0.02,0.02
12.158790111541748,-0.02,0.0,-0.02,0.02
12.168866157531738,-0.02,0.0,-0.02,0.02
12.184569835662842,-0.02,0.0,-0.01,0.02
12.186984062194824,-0.02,0.0,0.0,0.02
12.196954011917114,-0.02,0.0,-0.01,0.02
12.207058906555176,-0.02,0.0,-0.01,0.02
12.21970510482788,-0.02,0.01,-0.02,0.03
12.233951091766357,-0.02,-0.01,-0.02,0.03
12.236772060394287,-0.02,0.0,-0.02,0.02
12.247055053710938,-0.02,0.01,-0.02,0.03
12.259009838104248,-0.02,0.0,-0.01,0.02
12.268121004104614,-0.02,0.0,-0.02,0.02
12.27799105644226,-0.02,0.0,-0.02,0.02
12.286535024642944,-0.02,0.0,-0.01,0.02
12.298143863677979,-0.02,0.0,-0.01,0.02
12.308187007904053,-0.02,0.0,-0.01,0.02
12.318781852722168,-0.02,0.01,-0.02,0.03
12.335206985473633,-0.02,0.0,-0.01,0.02
12.336843013763428,-0.01,-0.01,-0.02,0.02
12.349964141845703,-0.02,0.0,-0.02,0.02
12.356060028076172,-0.01,0.0,-0.01,0.01
12.368378162384033,-0.02,0.01,-0.02,0.03
12.37782907485962,-0.03,0.0,-0.02,0.03
12.3859281539917,-0.02,0.01,-0.01,0.02
12.399821043014526,-0.02,0.0,-0.01,0.02
12.40784502029419,-0.02,0.01,-0.02,0.03
12.417200088500977,-0.02,0.01,-0.01,0.02
12.428112030029297,-0.02,0.01,-0.02,0.03
12.43539810180664,-0.02,0.01,-0.02,0.03
12.445901870727539,-0.02,0.01,-0.01,0.02
12.456714153289795,-0.02,-0.01,-0.01,0.02
12.467237949371338,-0.02,0.0,-0.01,0.02
12.480215072631836,-0.02,-0.01,-0.01,0.02
12.484928131103516,-0.02,0.01,-0.01,0.02
12.49970006942749,-0.02,0.01,-0.01,0.02
12.506918907165527,-0.02,0.01,-0.02,0.03
12.516899108886719,-0.02,0.0,-0.01,0.02
12.529000043869019,-0.02,0.0,-0.01,0.02
12.534587860107422,-0.02,0.0,-0.01,0.02
12.544743061065674,-0.02,0.0,-0.02,0.02
12.556015014648438,-0.02,0.0,-0.02,0.02
12.56583309173584,-0.02,0.0,-0.02,0.02
12.583693981170654,-0.02,0.01,-0.02,0.03
12.585137844085693,-0.02,0.0,-0.02,0.02
12.594254970550537,-0.02,0.01,-0.01,0.02
12.604572057723999,-0.02,0.0,-0.01,0.02
12.61597204208374,-0.02,0.0,-0.01,0.02
12.628350019454956,-0.02,0.0,-0.01,0.02
12.633970022201538,-0.02,0.0,-0.01,0.02
12.64604902267456,-0.01,0.01,-0.01,0.01
12.656116962432861,-0.02,0.0,-0.02,0.02
12.664003849029541,-0.02,0.01,-0.01,0.02
12.673768997192383,-0.02,0.0,-0.02,0.02
12.683794975280762,-0.02,0.01,-0.02,0.03
12.694118976593018,-0.01,0.01,-0.01,0.01
12.706061840057373,-0.02,0.0,-0.01,0.02
12.715353965759277,-0.02,0.0,0.0,0.02
12.726372957229614,-0.02,0.01,-0.01,0.02
12.733479976654053,-0.01,0.0,-0.01,0.01
12.743661880493164,-0.02,-0.01,-0.01,0.02
12.755331039428711,-0.02,0.0,-0.01,0.02
12.76505184173584,-0.01,0.0,-0.02,0.02
12.777716159820557,-0.02,0.0,-0.02,0.02
12.783051013946533,-0.01,0.0,-0.01,0.01
12.792961120605469,-0.02,0.0,0.0,0.02
12.804816961288452,-0.02,0.0,-0.01,0.02
12.815484046936035,-0.01,0.01,0.0,0.01
12.827640056610107,-0.01,0.0,0.0,0.01
12.832600116729736,-0.02,0.0,-0.01,0.02
12.842320919036865,-0.01,0.0,-0.01,0.01
12.853029012680054,-0.02,0.0,-0.02,0.02
12.863378047943115,-0.02,0.0,-0.02,0.02
12.874245166778564,-0.02,0.0,-0.03,0.03
12.882323026657104,-0.02,0.0,-0.01,0.02
12.892083168029785,-0.02,0.0,0.0,0.02
12.904231071472168,-0.02,-0.01,-0.01,0.02
12.913583040237427,-0.02,0.0,-0.01,0.02
12.925636053085327,-0.02,0.0,-0.01,0.02
12.931928157806396,-0.02,0.0,-0.01,0.02
12.94422197341919,-0.02,0.0,-0.03,0.03
12.953789949417114,-0.01,0.0,-0.01,0.01
12.964356899261475,-0.02,0.0,0.0,0.02
12.977872848510742,-0.01,0.01,-0.01,0.01
12.981711864471436,-0.02,0.0,-0.02,0.02
13.000884056091309,-0.02,0.0,-0.01,0.02
13.002478122711182,-0.02,0.0,-0.01,0.02
13.014019012451172,-0.02,0.0,-0.02,0.02
13.027045011520386,-0.01,0.0,-0.01,0.01
13.031200885772705,-0.01,0.0,-0.01,0.01
13.04126787185669,-0.02,-0.01,-0.02,0.03
13.053442001342773,-0.02,-0.01,-0.01,0.02
13.061517000198364,-0.02,0.0,-0.01,0.02
13.070749998092651,-0.02,0.0,-0.01,0.02
13.077072143554688,-0.02,0.0,-0.01,0.02
13.088159084320068,-0.02,0.0,-0.01,0.02
13.098814010620117,-0.02,0.0,-0.02,0.02
13.108392000198364,-0.02,0.01,-0.02,0.03
13.12083101272583,-0.02,0.0,0.0,0.02
13.127185821533203,-0.02,-0.01,-0.01,0.02
13.136818885803223,-0.02,0.01,-0.02,0.03
13.149184942245483,-0.02,0.01,-0.01,0.02
13.158285140991211,-0.01,0.0,-0.01,0.01
13.170795917510986,-0.02,0.01,-0.02,0.03
13.176393985748291,-0.01,0.0,-0.02,0.02
13.186251163482666,-0.01,0.0,-0.01,0.01
13.196622848510742,-0.02,0.0,-0.01,0.02
13.208317995071411,-0.02,0.0,-0.02,0.02
13.220749855041504,-0.02,0.0,-0.01,0.02
13.22592306137085,-0.02,0.0,0.0,0.02
13.2359459400177,-0.02,0.0,-0.02,0.02
13.24805498123169,-0.01,0.0,-0.02,0.02
13.256481170654297,-0.01,0.0,-0.02,0.02
13.269434928894043,-0.02,0.0,-0.01,0.02
13.275393009185791,-0.02,0.0,-0.01,0.02
13.287668943405151,-0.02,0.0,-0.02,0.02
13.297644138336182,-0.02,0.01,-0.01,0.02
13.305699825286865,-0.02,0.0,0.0,0.02
13.315710067749023,-0.02,0.0,-0.01,0.02
13.325244903564453,-0.02,0.0,-0.01,0.02
13.336513042449951,-0.02,0.0,-0.01,0.02
13.346210956573486,-0.02,0.0,-0.01,0.02
13.357282161712646,-0.01,0.0,-0.02,0.02
13.373379945755005,-0.02,0.01,-0.01,0.02
13.374716997146606,-0.02,0.0,-0.01,0.02
13.384757995605469,-0.02,0.0,-0.01,0.02
13.394885063171387,-0.02,0.0,-0.02,0.02
13.406451940536499,-0.02,0.0,-0.01,0.02
13.417016983032227,-0.02,0.0,0.0,0.02
13.424344062805176,-0.02,0.0,-0.01,0.02
13.434152126312256,-0.02,0.0,-0.01,0.02
13.446390151977539,-0.02,0.0,0.0,0.02
13.45605993270874,-0.02,0.0,-0.01,0.02
13.468285083770752,-0.01,0.0,-0.01,0.01
13.474202156066895,-0.01,0.01,-0.01,0.01
13.48413610458374,-0.01,0.01,0.0,0.01
13.496682167053223,-0.02,0.0,-0.01,0.02
13.505864143371582,-0.02,0.0,-0.02,0.02
13.515928030014038,-0.02,0.0,-0.02,0.02
13.523749828338623,-0.02,0.0,-0.01,0.02
13.533998012542725,-0.02,0.01,-0.02,0.03
13.545233964920044,-0.02,0.01,-0.02,0.03
13.555678844451904,-0.02,0.0,-0.02,0.02
13.567806959152222,-0.01,0.0,-0.02,0.02
13.573441982269287,-0.02,0.0,-0.02,0.02
13.583407878875732,-0.02,0.0,-0.02,0.02
13.595152854919434,-0.02,0.0,-0.02,0.02
13.605608940124512,-0.02,0.0,-0.01,0.02
13.61893892288208,-0.03,0.0,-0.01,0.03
13.623156070709229,-0.02,0.0,-0.02,0.02
13.639317989349365,-0.02,0.01,-0.02,0.03
13.648741006851196,-0.02,0.0,-0.02,0.02
13.658854007720947,-0.01,0.0,-0.01,0.01
13.670496940612793,-0.01,0.0,-0.02,0.02
13.677001953125,-0.02,0.0,-0.02,0.02
13.686691045761108,-0.02,0.0,-0.01,0.02
13.698927879333496,-0.02,0.0,-0.02,0.02
13.708972930908203,-0.01,0.01,-0.01,0.01
13.721609115600586,-0.02,0.0,-0.01,0.02
13.726183891296387,-0.02,0.0,-0.01,0.02
13.736495018005371,-0.01,0.0,-0.01,0.01
13.748712062835693,-0.02,0.0,-0.01,0.02
13.756965160369873,-0.02,0.0,-0.01,0.02
13.77032995223999,-0.02,0.0,-0.01,0.02
13.775846004486084,-0.02,0.0,-0.01,0.02
13.787455081939697,-0.02,0.0,-0.01,0.02
13.797598838806152,-0.02,0.0,-0.02,0.02
13.807551860809326,-0.02,0.0,-0.01,0.02
13.818899154663086,-0.01,-0.01,-0.01,0.01
13.825904846191406,-0.01,0.0,-0.02,0.02
13.836071014404297,-0.01,0.0,-0.01,0.01
13.847285032272339,-0.01,0.0,-0.01,0.01
13.857714176177979,-0.02,0.0,-0.03,0.03
13.870831966400146,-0.01,0.0,-0.01,0.01
13.875328063964844,-0.02,0.0,-0.01,0.02
13.885226011276245,-0.02,0.0,-0.01,0.02
13.897850036621094,-0.02,0.0,0.0,0.02
13.9061119556427,-0.02,0.0,0.0,0.02
13.920702934265137,-0.01,0.0,-0.01,0.01
13.924881935119629,-0.01,-0.01,-0.02,0.02
13.935100078582764,-0.02,0.0,-0.02,0.02
13.945312023162842,-0.02,0.0,-0.01,0.02
13.956983089447021,-0.02,0.0,-0.02,0.02
13.971276044845581,-0.02,-0.01,-0.02,0.03
13.974451065063477,-0.02,-0.01,-0.01,0.02
13.984549045562744,-0.02,0.0,-0.02,0.02
13.994953155517578,-0.02,0.01,-0.01,0.02
14.005981922149658,-0.02,0.01,-0.01,0.02
14.017971992492676,-0.03,0.01,-0.02,0.03
14.024415969848633,-0.02,0.0,0.0,0.02
14.034306049346924,-0.02,0.01,0.0,0.02
14.046658992767334,-0.02,0.0,-0.01,0.02
14.054267883300781,-0.01,0.0,-0.02,0.02
14.064046859741211,-0.01,0.0,-0.01,0.01
14.073912143707275,-0.01,0.01,-0.02,0.02
14.083739995956421,-0.02,0.01,-0.01,0.02
14.09642505645752,-0.01,0.0,-0.01,0.01
14.10553503036499,-0.01,-0.01,-0.01,0.01
14.117693901062012,-0.01,0.0,-0.01,0.01
14.123650074005127,-0.02,0.0,-0.02,0.02
14.133780002593994,-0.01,0.0,-0.01,0.01
14.145977973937988,-0.02,0.0,-0.02,0.02
14.153448104858398,-0.03,0.0,-0.01,0.03
14.163450956344604,-0.02,0.01,-0.01,0.02
14.17333984375,-0.02,0.01,-0.02,0.03
14.182857036590576,-0.02,0.01,-0.02,0.03
14.196380138397217,-0.01,0.0,-0.01,0.01
14.203485012054443,-0.01,0.01,-0.02,0.02
14.213292121887207,-0.02,0.0,-0.01,0.02
14.223019123077393,-0.02,0.01,-0.02,0.03
14.232914924621582,-0.02,0.01,-0.02,0.03
14.245519161224365,-0.01,0.0,-0.02,0.02
14.254753112792969,-0.02,0.0,-0.01,0.02
14.267490863800049,-0.02,0.0,-0.01,0.02
14.272531032562256,-0.01,0.01,-0.01,0.01
14.282620906829834,-0.02,0.0,-0.01,0.02
14.29225206375122,-0.02,0.0,-0.01,0.02
14.304651975631714,-0.01,0.0,-0.02,0.02
14.315877914428711,-0.01,-0.01,-0.01,0.01
14.322036981582642,-0.01,-0.01,0.0,0.01
14.334741115570068,-0.02,0.0,-0.02,0.02
14.343203067779541,-0.02,0.0,-0.02,0.02
14.354334831237793,-0.02,0.0,-0.01,0.02
14.370669841766357,-0.02,0.0,-0.02,0.02
14.37214183807373,-0.02,-0.01,-0.01,0.02
14.3817720413208,-0.02,0.0,-0.02,0.02
14.391961097717285,-0.02,0.0,-0.02,0.02
14.403066158294678,-0.02,0.0,-0.02,0.02
14.417966842651367,-0.01,0.0,-0.02,0.02
14.4215669631958,-0.02,0.0,-0.01,0.02
14.431727886199951,-0.02,0.0,-0.02,0.02
14.443148136138916,-0.02,0.0,-0.02,0.02
14.453130960464478,-0.02,0.0,-0.01,0.02
14.464797973632812,-0.02,0.0,-0.01,0.02
14.47133994102478,-0.01,0.01,-0.02,0.02
14.483587980270386,-0.02,0.01,-0.02,0.03
14.493796825408936,-0.01,0.0,-0.01,0.01
14.50291109085083,-0.02,0.0,-0.02,0.02
14.515115022659302,-0.02,0.0,-0.01,0.02
14.520982027053833,-0.02,0.0,-0.02,0.02
14.532323837280273,-0.01,0.01,-0.02,0.02
14.541274070739746,-0.02,0.01,0.0,0.02
14.553676128387451,-0.03,0.0,-0.01,0.03
14.564268112182617,-0.02,0.0,-0.01,0.02
14.570582866668701,-0.01,0.0,-0.01,0.01
14.582957983016968,-0.02,0.0,-0.02,0.02
14.592978954315186,-0.02,0.01,-0.01,0.02
14.600174903869629,-0.02,0.01,-0.01,0.02
14.61037302017212,-0.02,0.01,-0.02,0.03
14.62034296989441,-0.01,0.0,-0.02,0.02
14.630630016326904,-0.02,0.0,-0.01,0.02
14.643038034439087,-0.02,0.01,-0.03,0.03
14.652129173278809,-0.02,0.0,-0.01,0.02
14.664979934692383,-0.02,0.01,-0.01,0.02
14.669944047927856,-0.02,0.0,-0.01,0.02
14.682332038879395,-0.02,0.0,-0.01,0.02
14.690144062042236,-0.02,0.01,-0.02,0.03
14.702334880828857,-0.02,0.0,-0.01,0.02
14.720065116882324,-0.02,0.0,0.0,0.02
14.721240997314453,-0.02,0.0,-0.02,0.02
14.7305269241333,-0.01,0.0,-0.02,0.02
14.739588975906372,-0.02,0.0,-0.02,0.02
14.751662015914917,-0.02,0.01,-0.01,0.02
14.763290882110596,-0.02,0.01,-0.01,0.02
14.769434928894043,-0.02,-0.01,-0.02,0.03
14.779221057891846,-0.01,-0.01,-0.02,0.02
14.789390087127686,-0.02,0.0,-0.02,0.02
14.80017900466919,-0.02,0.0,-0.02,0.02
14.810950994491577,-0.02,0.01,-0.02,0.03
14.818814039230347,-0.01,0.0,-0.02,0.02
14.828847885131836,-0.02,0.0,-0.02,0.02
14.840091943740845,-0.02,0.0,-0.02,0.02
14.850132942199707,-0.02,0.0,-0.02,0.02
14.863356113433838,-0.01,0.01,-0.02,0.02
14.868263006210327,-0.01,0.0,-0.02,0.02
14.878504037857056,-0.02,0.01,-0.02,0.03
14.890321016311646,-0.02,0.01,-0.01,0.02
14.900144100189209,-0.02,0.0,-0.01,0.02
14.913570880889893,-0.03,0.0,-0.02,0.03
14.918133020401001,-0.02,0.0,-0.02,0.02
14.92825984954834,-0.01,0.01,-0.01,0.01
14.938390970230103,-0.02,0.01,-0.02,0.03
14.95088505744934,-0.01,0.01,-0.01,0.01
14.969166040420532,-0.02,0.01,-0.01,0.02
14.970546007156372,-0.02,0.01,-0.02,0.03
14.98074197769165,-0.01,0.01,-0.03,0.03
14.987979888916016,-0.01,0.01,-0.01,0.01
15.000207901000977,-0.02,0.01,0.0,0.02
15.011434078216553,-0.02,0.01,-0.02,0.03
15.017420053482056,-0.02,0.01,-0.01,0.02
15.0368070602417,-0.02,0.0,-0.01,0.02
15.040895938873291,-0.02,0.0,-0.01,0.02
15.048684120178223,-0.02,0.0,-0.01,0.02
15.05928897857666,-0.02,0.01,-0.02,0.03
15.067252159118652,-0.02,0.0,-0.01,0.02
15.077409982681274,-0.02,0.02,-0.01,0.03
15.089014053344727,-0.02,0.01,-0.01,0.02
15.099138021469116,-0.01,0.0,-0.01,0.01
15.112931966781616,-0.02,0.01,-0.02,0.03
15.116760015487671,-0.02,0.01,-0.01,0.02
15.133561134338379,-0.01,0.0,-0.01,0.01
15.138471126556396,-0.01,0.0,-0.02,0.02
15.150000095367432,-0.01,0.01,-0.02,0.02
15.160774946212769,-0.02,0.0,-0.02,0.02
15.16657304763794,-0.01,0.01,-0.01,0.01
15.176382064819336,-0.02,0.01,-0.02,0.03
15.186716079711914,-0.01,0.01,0.0,0.01
15.198436975479126,-0.01,0.01,-0.01,0.01
15.211397171020508,-0.01,0.0,-0.01,0.01
15.215950965881348,-0.01,-0.01,0.0,0.01
15.226058959960938,-0.02,0.0,-0.01,0.02
15.236426830291748,-0.01,0.01,-0.02,0.02
15.24856185913086,-0.02,0.01,-0.02,0.03
15.259513854980469,-0.01,0.0,-0.01,0.01
15.265836000442505,-0.02,0.0,-0.02,0.02
15.275365829467773,-0.02,0.0,-0.02,0.02
15.287674903869629,-0.01,0.0,-0.02,0.02
15.297287940979004,-0.02,0.0,0.0,0.02
15.309622049331665,-0.02,0.0,-0.01,0.02
15.31540584564209,-0.02,0.01,-0.01,0.02
15.325217008590698,-0.01,0.01,-0.01,0.01
15.337241172790527,-0.01,0.0,-0.01,0.01
15.346678972244263,-0.01,0.02,-0.01,0.02
15.359485149383545,-0.01,0.01,-0.02,0.02
15.364804983139038,-0.01,0.01,-0.01,0.01
15.374878883361816,-0.02,0.01,0.0,0.02
15.385135173797607,-0.02,0.0,-0.02,0.02
15.39707612991333,-0.01,0.0,-0.02,0.02
15.408247947692871,-0.02,0.01,-0.01,0.02
15.414690971374512,-0.01,0.01,-0.01,0.01
15.424540996551514,-0.02,0.01,0.0,0.02
15.436491012573242,-0.02,0.01,-0.01,0.02
15.446331977844238,-0.01,0.01,-0.02,0.02
15.458742141723633,-0.01,0.01,-0.02,0.02
15.464776039123535,-0.02,0.0,-0.01,0.02
15.474270820617676,-0.01,0.0,-0.01,0.01
15.486595153808594,-0.02,0.01,-0.01,0.02
15.495153903961182,-0.02,0.01,-0.01,0.02
15.505383014678955,-0.01,0.0,-0.01,0.01
15.514216899871826,-0.01,0.01,-0.02,0.02
15.52639102935791,-0.02,0.0,-0.01,0.02
15.533509969711304,-0.02,0.0,-0.01,0.02
15.545566082000732,-0.01,0.0,-0.01,0.01
15.558091163635254,-0.02,0.01,-0.01,0.02
15.563425064086914,-0.01,0.01,-0.01,0.01
15.57353401184082,-0.01,0.0,-0.01,0.01
15.583560943603516,-0.01,0.0,-0.01,0.01
15.59556794166565,-0.01,0.01,-0.01,0.01
15.610110998153687,-0.01,0.01,-0.01,0.01
15.613268852233887,-0.01,0.0,-0.01,0.01
15.623073101043701,-0.02,0.0,-0.01,0.02
15.634448051452637,-0.02,0.0,-0.01,0.02
15.645611047744751,-0.02,0.01,-0.02,0.03
15.661818981170654,-0.02,0.0,-0.01,0.02
15.663371086120605,-0.01,0.0,-0.01,0.01
15.683051109313965,-0.01,-0.01,-0.01,0.01
15.684200048446655,-0.02,0.0,-0.01,0.02
15.695773124694824,-0.01,0.01,-0.01,0.01
15.704815864562988,-0.01,0.0,-0.02,0.02
15.712976932525635,-0.02,0.01,-0.01,0.02
15.722615003585815,-0.01,0.01,-0.02,0.02
15.73285698890686,-0.02,0.01,-0.01,0.02
15.744741916656494,-0.01,0.01,-0.01,0.01
15.756860971450806,-0.02,0.01,-0.02,0.03
15.762219905853271,-0.01,0.0,-0.01,0.01
15.772011041641235,-0.01,0.0,-0.01,0.01
15.782142162322998,-0.01,0.01,-0.01,0.01
15.794404983520508,-0.02,0.01,-0.01,0.02
15.8085298538208,-0.02,0.01,-0.02,0.03
15.811890125274658,-0.01,0.0,-0.02,0.02
15.82193398475647,-0.02,-0.01,-0.02,0.03
15.832261085510254,-0.01,0.0,-0.02,0.02
15.844691038131714,-0.01,0.01,-0.01,0.01
15.855125904083252,-0.01,0.01,-0.02,0.02
15.86178994178772,-0.01,0.0,-0.01,0.01
15.871532917022705,-0.01,0.0,-0.02,0.02
15.883589029312134,-0.01,0.01,-0.01,0.01
15.89342212677002,-0.01,0.02,-0.01,0.02
15.906044960021973,-0.02,0.01,0.0,0.02
15.911067962646484,-0.02,0.01,-0.01,0.02
15.921288967132568,-0.01,0.01,-0.01,0.01
15.931632041931152,-0.01,0.0,-0.02,0.02
15.943477153778076,-0.02,0.0,-0.01,0.02
15.953117847442627,-0.02,0.0,-0.01,0.02
15.960906982421875,-0.01,0.0,-0.01,0.01
15.970798969268799,-0.01,0.01,-0.02,0.02
15.982722997665405,-0.01,0.01,-0.01,0.01
15.992990970611572,-0.02,0.0,-0.01,0.02
16.005483150482178,-0.01,0.0,-0.01,0.01
16.0103280544281,-0.02,0.01,-0.02,0.03
16.020505905151367,-0.01,0.01,-0.02,0.02
16.03287982940674,-0.02,0.0,-0.01,0.02
16.041789054870605,-0.02,0.01,-0.01,0.02
16.05388307571411,-0.01,0.0,-0.01,0.01
16.060297966003418,-0.02,0.01,-0.02,0.03
16.07051396369934,-0.02,0.0,0.0,0.02
16.08268690109253,-0.01,0.01,-0.01,0.01
16.091825008392334,-0.01,0.01,-0.02,0.02
16.104877948760986,-0.01,0.01,-0.01,0.01
16.109516143798828,-0.01,0.0,-0.01,0.01
16.1199049949646,-0.02,0.0,-0.02,0.02
16.130052089691162,-0.01,0.01,-0.02,0.02
16.141082048416138,-0.01,0.01,-0.02,0.02
16.155367851257324,-0.02,0.0,-0.01,0.02
16.159345149993896,-0.01,0.0,-0.01,0.01
16.16949200630188,-0.01,0.01,-0.02,0.02
16.17988109588623,-0.01,0.0,0.0,0.01
16.19122886657715,0.0,0.0,-0.01,0.01
16.201956033706665,-0.01,0.01,-0.01,0.01
16.209187030792236,-0.01,0.0,-0.01,0.01
16.219023942947388,-0.01,0.0,-0.01,0.01
16.23061203956604,-0.01,0.0,-0.01,0.01
16.241661071777344,0.0,-0.01,-0.02,0.02
16.25489902496338,-0.01,0.01,-0.02,0.02
16.258747100830078,-0.02,0.01,-0.02,0.03
16.268800020217896,-0.02,0.01,-0.01,0.02
16.279119968414307,-0.01,0.01,-0.01,0.01
16.28855609893799,-0.01,0.01,-0.01,0.01
16.298294067382812,-0.01,0.0,-0.01,0.01
16.308583974838257,-0.02,0.0,-0.02,0.02
16.31960701942444,-0.02,0.0,-0.02,0.02
16.329097032546997,-0.02,0.0,-0.02,0.02
16.340245008468628,0.0,0.0,-0.01,0.01
16.355143070220947,0.0,0.01,-0.02,0.02
16.35780382156372,-0.02,0.01,-0.01,0.02
16.367802143096924,-0.01,0.01,-0.01,0.01
16.37906789779663,-0.01,0.01,-0.01,0.01
16.389929056167603,-0.02,0.0,-0.01,0.02
16.40310287475586,-0.01,0.01,-0.01,0.01
16.407647132873535,-0.01,0.0,-0.02,0.02
16.417516946792603,-0.02,0.0,0.0,0.02
16.429712057113647,-0.01,0.0,0.0,0.01
16.439323902130127,-0.01,0.0,-0.02,0.02
16.44974184036255,-0.01,0.0,-0.02,0.02
16.457385063171387,-0.02,-0.01,-0.01,0.02
16.467540979385376,-0.01,0.0,-0.01,0.01
16.47900700569153,-0.01,0.01,-0.01,0.01
16.488821983337402,-0.01,0.0,-0.01,0.01
16.499507904052734,-0.01,0.0,-0.01,0.01
16.5069260597229,-0.02,0.0,-0.01,0.02
16.519060134887695,-0.01,0.0,-0.02,0.02
16.528957843780518,-0.01,0.0,-0.01,0.01
16.537932872772217,-0.01,0.0,-0.01,0.01
16.547119140625,-0.01,0.01,-0.02,0.02
16.556501865386963,-0.01,0.0,-0.01,0.01
16.566972970962524,-0.02,0.01,-0.02,0.03
16.57934284210205,-0.02,0.0,-0.01,0.02
16.58636498451233,-0.02,0.0,-0.01,0.02
16.596542835235596,-0.01,0.0,-0.02,0.02
16.60646104812622,-0.02,0.0,-0.02,0.02
16.618499994277954,-0.02,0.0,-0.01,0.02
16.628982067108154,-0.01,0.01,-0.01,0.01
16.635980129241943,0.0,0.01,-0.01,0.01
16.64591693878174,-0.01,0.01,-0.01,0.01
16.655911922454834,-0.01,0.0,-0.01,0.01
16.66729497909546,-0.01,0.0,-0.01,0.01
16.678834915161133,-0.02,0.01,-0.02,0.03
16.687798976898193,-0.01,0.0,-0.01,0.01
16.698243141174316,-0.02,0.0,-0.02,0.02
16.70546793937683,-0.02,0.0,-0.02,0.02
16.71545100212097,-0.02,0.0,-0.01,0.02
16.72804594039917,-0.01,0.0,-0.01,0.01
16.7357439994812,-0.02,-0.01,-0.01,0.02
16.7453830242157,-0.01,-0.01,-0.01,0.01
16.75531005859375,-0.01,0.01,-0.01,0.01
16.765282154083252,-0.01,0.01,-0.01,0.01
16.777919054031372,-0.01,0.01,-0.02,0.02
16.786941051483154,-0.02,0.01,-0.02,0.03
16.798161029815674,-0.01,0.0,-0.01,0.01
16.80492115020752,-0.01,0.01,-0.02,0.02
16.815887928009033,-0.01,0.01,-0.02,0.02
16.828205108642578,-0.02,0.0,-0.02,0.02
16.83698081970215,-0.02,0.01,-0.01,0.02
16.845789909362793,-0.01,0.01,-0.01,0.01
16.854691982269287,-0.02,0.01,-0.01,0.02
16.864502906799316,-0.01,0.0,-0.02,0.02
16.87446117401123,-0.01,0.0,-0.03,0.03
16.886313915252686,-0.01,0.0,-0.01,0.01
16.897584915161133,-0.01,0.01,-0.02,0.02
16.90420389175415,-0.01,0.01,-0.02,0.02
16.914268970489502,-0.02,0.01,-0.02,0.03
16.926981925964355,-0.01,-0.01,-0.02,0.02
16.934098958969116,-0.01,0.0,-0.01,0.01
16.943846940994263,-0.01,0.0,-0.01,0.01
16.954169034957886,-0.01,0.01,-0.02,0.02
16.96660804748535,-0.01,0.0,-0.01,0.01
16.973891973495483,-0.01,0.01,-0.01,0.01
16.985783100128174,-0.01,0.0,-0.01,0.01
16.997940063476562,-0.01,0.0,-0.01,0.01
17.003752946853638,-0.01,0.01,-0.02,0.02
17.013713836669922,0.0,0.01,-0.01,0.01
17.023990154266357,-0.01,0.0,-0.02,0.02
17.033772945404053,-0.02,0.0,-0.02,0.02
17.04366898536682,-0.01,0.0,-0.01,0.01
17.05324411392212,0.0,0.0,-0.03,0.03
17.063302993774414,-0.01,0.0,-0.02,0.02
17.069190979003906,-0.01,0.0,-0.02,0.02
17.081643104553223,-0.02,0.0,-0.01,0.02
17.095667839050293,-0.02,0.01,-0.01,0.02
17.098840951919556,-0.01,0.01,-0.02,0.02
17.109133005142212,-0.01,0.0,-0.01,0.01
17.11897087097168,-0.01,0.0,-0.01,0.01
17.131577968597412,-0.01,0.01,-0.01,0.01
17.143131971359253,-0.01,0.0,-0.02,0.02
17.14863896369934,0.0,0.0,-0.01,0.01
17.158453941345215,-0.01,-0.01,-0.01,0.01
17.17418384552002,-0.01,0.01,-0.02,0.02
17.178093910217285,-0.01,0.01,-0.02,0.02
17.18842887878418,-0.01,0.01,-0.01,0.01
17.19833517074585,-0.01,0.0,-0.01,0.01
17.210958003997803,-0.01,0.01,-0.02,0.02
17.220727920532227,-0.01,0.0,-0.01,0.01
17.227677822113037,-0.01,0.0,-0.01,0.01
17.237921953201294,-0.01,0.01,-0.01,0.01
17.24844217300415,-0.01,0.0,-0.02,0.02
17.260706901550293,-0.02,0.0,-0.03,0.03
17.26782202720642,-0.01,0.0,-0.01,0.01
17.280539989471436,-0.01,0.01,-0.01,0.01
17.292521953582764,-0.01,0.0,-0.02,0.02
17.297237873077393,-0.01,0.0,-0.02,0.02
17.307749032974243,-0.01,0.01,-0.01,0.01
17.31790804862976,-0.02,0.0,-0.02,0.02
17.329987049102783,-0.01,0.01,-0.02,0.02
17.33991503715515,-0.01,0.0,-0.01,0.01
17.34728193283081,-0.01,0.0,-0.02,0.02
17.35714292526245,-0.01,0.0,-0.01,0.01
17.370349884033203,0.0,0.0,-0.02,0.02
17.37694501876831,-0.01,0.01,-0.01,0.01
17.386813163757324,-0.01,0.0,-0.02,0.02
17.396546840667725,-0.01,0.0,-0.02,0.02
17.40691304206848,-0.01,-0.01,-0.01,0.01
17.41910982131958,-0.02,0.0,-0.01,0.02
17.426610946655273,-0.01,0.01,-0.02,0.02
17.43647599220276,-0.01,0.01,-0.01,0.01
17.446879863739014,-0.01,0.0,-0.02,0.02
17.458565950393677,-0.01,0.01,-0.02,0.02
17.468088150024414,-0.01,0.0,-0.02,0.02
17.47614812850952,-0.01,0.0,-0.01,0.01
17.48594093322754,-0.01,0.0,-0.01,0.01
17.496644973754883,0.0,0.01,-0.03,0.03
17.515918970108032,-0.01,0.01,-0.02,0.02
17.5224449634552,-0.01,0.0,-0.01,0.01
17.52587604522705,-0.01,0.01,-0.02,0.02
17.53584384918213,-0.02,0.01,-0.02,0.03
17.545939922332764,-0.01,0.01,-0.02,0.02
17.555789947509766,-0.01,0.0,-0.02,0.02
17.56732988357544,-0.01,0.0,-0.01,0.01
17.578325986862183,-0.01,0.0,-0.02,0.02
17.5886709690094,-0.01,0.01,-0.02,0.02
17.595595836639404,-0.01,0.01,-0.01,0.01
17.605501174926758,-0.02,0.0,-0.01,0.02
17.617525100708008,-0.01,0.0,-0.01,0.01
17.625081062316895,-0.01,0.01,-0.01,0.01
17.635092973709106,-0.01,0.01,-0.01,0.01
17.645923137664795,-0.01,0.0,-0.02,0.02
17.65771484375,-0.01,0.01,-0.03,0.03
17.667273998260498,-0.01,-0.01,-0.02,0.02
17.677433967590332,-0.01,0.01,-0.01,0.01
17.688281059265137,-0.01,0.0,-0.01,0.01
17.69497799873352,-0.01,0.0,-0.02,0.02
17.705113887786865,0.0,0.0,-0.02,0.02
17.717401027679443,-0.01,0.0,-0.02,0.02
17.72689914703369,-0.01,0.01,-0.02,0.02
17.738281965255737,-0.01,0.01,-0.01,0.01
17.74460196495056,-0.01,0.01,-0.01,0.01
17.754796028137207,-0.01,0.0,-0.01,0.01
17.76703405380249,-0.01,0.0,-0.02,0.02
17.774449825286865,-0.01,0.0,-0.01,0.01
17.78427791595459,-0.01,0.01,-0.02,0.02
17.794100999832153,-0.01,0.0,-0.02,0.02
17.806602001190186,-0.01,0.01,-0.01,0.01
17.813851833343506,-0.01,0.01,-0.02,0.02
17.82414698600769,-0.01,0.01,-0.02,0.02
17.83369207382202,-0.01,0.01,-0.02,0.02
17.846107959747314,-0.02,0.01,-0.02,0.03
17.855710983276367,-0.01,0.0,-0.02,0.02
17.865957021713257,-0.01,0.01,-0.01,0.01
17.87529706954956,-0.01,0.01,-0.02,0.02
17.88656497001648,-0.01,0.0,-0.02,0.02
17.8937668800354,-0.01,0.0,-0.01,0.01
17.903900146484375,-0.02,0.0,-0.02,0.02
17.916064023971558,-0.02,0.01,-0.01,0.02
17.925537109375,-0.01,0.0,-0.02,0.02
17.936702966690063,-0.01,0.0,-0.02,0.02
17.9430570602417,-0.01,0.0,-0.02,0.02
17.953686952590942,-0.02,-0.01,-0.02,0.03
17.96618103981018,-0.01,0.0,-0.02,0.02
17.972888946533203,-0.01,0.0,-0.02,0.02
17.982808113098145,-0.01,0.0,-0.01,0.01
17.992849826812744,-0.02,0.01,-0.01,0.02
18.00306510925293,-0.02,0.0,-0.02,0.02
18.015378952026367,0.0,0.0,-0.02,0.02
18.02292490005493,-0.01,0.0,-0.01,0.01
18.03253197669983,-0.01,0.01,-0.01,0.01
18.042732000350952,0.0,0.0,-0.02,0.02
18.05291986465454,-0.01,0.0,-0.01,0.01
18.063771963119507,-0.01,0.0,-0.01,0.01
18.074769973754883,-0.02,0.0,-0.01,0.02
18.08949089050293,-0.01,0.02,-0.02,0.03
18.091853141784668,-0.01,0.01,-0.01,0.01
18.10205888748169,0.0,0.01,0.0,0.01
18.112427949905396,-0.01,0.01,-0.01,0.01
18.12426495552063,-0.01,0.0,-0.02,0.02
18.13479995727539,-0.01,0.01,-0.01,0.01
18.141942024230957,-0.02,0.0,-0.02,0.02
18.15185785293579,-0.01,0.01,-0.01,0.01
18.164571046829224,-0.01,0.0,-0.02,0.02
18.17128300666809,-0.01,0.0,-0.02,0.02
18.18165898323059,-0.01,0.0,-0.03,0.03
18.192011833190918,-0.01,0.01,-0.02,0.02
18.203915119171143,-0.01,0.01,-0.01,0.01
18.211413860321045,-0.01,0.01,-0.02,0.02
18.22400712966919,-0.01,0.0,-0.01,0.01
18.23655414581299,0.0,0.0,-0.02,0.02
18.241232872009277,-0.01,0.0,-0.01,0.01
18.250781059265137,-0.02,0.0,-0.02,0.02
18.263280868530273,-0.01,0.0,-0.02,0.02
18.27301597595215,-0.01,0.0,-0.01,0.01
18.2861909866333,-0.01,0.0,-0.02,0.02
18.29073405265808,-0.01,0.0,-0.02,0.02
18.30044198036194,-0.01,0.0,-0.02,0.02
18.3105731010437,-0.01,0.01,-0.02,0.02
18.32310390472412,-0.02,0.01,-0.02,0.03
18.335953950881958,-0.01,0.01,-0.02,0.02
18.340324878692627,-0.01,0.0,-0.01,0.01
18.35031509399414,-0.01,0.01,-0.01,0.01
18.360234022140503,-0.01,0.01,-0.01,0.01
18.37263584136963,-0.01,0.01,-0.02,0.02
18.388309001922607,-0.01,0.01,-0.01,0.01
18.389638900756836,-0.01,0.0,-0.01,0.01
18.399901866912842,0.0,0.0,-0.01,0.01
18.412678003311157,-0.01,0.0,-0.02,0.02
18.421200037002563,-0.01,0.01,-0.03,0.03
18.431807041168213,-0.01,0.01,-0.02,0.02
18.43972897529602,-0.01,0.01,-0.01,0.01
18.450204849243164,-0.01,0.0,-0.01,0.01
18.462200164794922,0.0,0.0,-0.02,0.02
18.471266984939575,0.0,0.01,-0.02,0.02
18.48514986038208,-0.01,0.0,-0.01,0.01
18.489125967025757,-0.01,0.0,-0.01,0.01
18.499037981033325,-0.01,0.0,-0.01,0.01
18.51131296157837,-0.01,0.02,-0.01,0.02
18.519197940826416,-0.01,0.0,-0.02,0.02
18.52946901321411,-0.02,0.01,-0.02,0.03
18.539094924926758,-0.01,0.0,-0.02,0.02
18.549260139465332,-0.02,0.0,-0.02,0.02
18.561447143554688,-0.01,0.0,-0.01,0.01
18.568800926208496,0.0,0.0,-0.01,0.01
18.579012870788574,0.0,0.02,-0.02,0.02
18.58858585357666,-0.01,0.0,-0.02,0.02
18.59883213043213,-0.01,0.01,-0.02,0.02
18.611331939697266,-0.01,0.0,-0.03,0.03
18.620328903198242,-0.01,0.0,-0.02,0.02
18.629465103149414,-0.01,0.01,-0.02,0.02
18.63839101791382,-0.01,0.0,-0.01,0.01
18.648233890533447,-0.01,0.0,-0.01,0.01
18.658341884613037,-0.01,0.0,0.0,0.01
18.670483112335205,0.0,0.0,-0.01,0.01
18.685024976730347,-0.01,0.01,-0.02,0.02
18.68761682510376,-0.01,0.01,-0.02,0.02
18.69790506362915,-0.01,0.0,-0.02,0.02
18.710230827331543,-0.01,0.0,-0.01,0.01
18.718590021133423,-0.01,0.0,-0.01,0.01
18.729737997055054,-0.01,0.01,-0.01,0.01
18.73758602142334,-0.01,0.01,-0.02,0.02
18.747941970825195,-0.01,-0.01,-0.02,0.02
18.760278940200806,-0.01,-0.01,-0.01,0.01
18.76914882659912,-0.01,0.0,0.0,0.01
18.780983924865723,-0.01,0.01,-0.02,0.02
18.787169933319092,-0.01,0.0,-0.02,0.02
18.79773998260498,-0.01,0.01,-0.01,0.01
18.809852123260498,0.0,0.01,-0.02,0.02
18.81697988510132,-0.01,0.01,-0.01,0.01
18.82646083831787,-0.01,0.01,-0.01,0.01
18.83678913116455,-0.01,0.01,-0.01,0.01
18.8472261428833,-0.01,0.0,-0.01,0.01
18.858827114105225,-0.01,0.01,-0.01,0.01
18.868705987930298,-0.01,0.0,-0.02,0.02
18.880340099334717,-0.01,0.0,-0.01,0.01
18.886448860168457,-0.01,0.01,-0.02,0.02
18.89716911315918,0.0,0.0,-0.01,0.01
18.908318996429443,-0.01,0.0,-0.01,0.01
18.918182849884033,-0.01,0.0,-0.02,0.02
18.929509162902832,-0.01,0.0,-0.02,0.02
18.93632411956787,-0.01,0.01,-0.01,0.01
18.94615888595581,-0.01,0.01,-0.01,0.01
18.957417964935303,-0.01,0.01,-0.01,0.01
18.968339920043945,-0.02,0.0,-0.01,0.02
18.987020015716553,-0.01,0.0,-0.01,0.01
18.98833703994751,-0.01,0.01,-0.01,0.01
18.995687007904053,-0.01,0.0,-0.02,0.02
19.00601100921631,-0.01,0.0,-0.01,0.01
19.017157077789307,-0.01,0.0,-0.01,0.01
19.03122901916504,-0.01,0.01,-0.01,0.01
19.035377025604248,-0.01,0.0,-0.01,0.01
19.04587984085083,-0.01,0.0,-0.03,0.03
19.057955026626587,-0.01,0.01,0.0,0.01
19.066871166229248,-0.01,0.01,-0.01,0.01
19.07803201675415,-0.01,0.01,-0.01,0.01
19.084985971450806,-0.01,0.0,0.0,0.01
19.095373153686523,-0.01,0.0,-0.01,0.01
19.1065731048584,-0.01,0.0,-0.01,0.01
19.117228031158447,-0.01,0.0,-0.02,0.02
19.132068157196045,-0.01,0.0,-0.02,0.02
19.134663105010986,-0.02,0.0,-0.02,0.02
19.14515995979309,-0.01,0.01,-0.02,0.02
19.156635999679565,-0.01,0.01,0.0,0.01
19.166709899902344,-0.01,0.0,-0.02,0.02
19.17936897277832,-0.01,0.0,-0.01,0.01
19.184258937835693,-0.02,0.01,-0.02,0.03
19.20067596435547,-0.01,-0.01,-0.01,0.01
19.20466709136963,-0.02,0.0,-0.02,0.02
19.21950101852417,-0.01,0.0,-0.02,0.02
19.229601860046387,-0.01,0.01,-0.03,0.03
19.234132051467896,-0.02,0.0,-0.01,0.02
19.244074821472168,-0.01,0.0,-0.01,0.01
19.254112005233765,-0.01,0.0,0.0,0.01
19.266659021377563,-0.01,0.01,-0.01,0.01
19.278017044067383,-0.02,0.0,-0.01,0.02
19.283776998519897,-0.01,0.01,-0.01,0.01
19.29345417022705,-0.01,0.0,-0.01,0.01
19.305609941482544,-0.01,0.0,-0.02,0.02
19.315670013427734,-0.02,0.01,-0.01,0.02
19.32739496231079,-0.01,0.01,-0.01,0.01
19.33316707611084,-0.01,0.01,-0.01,0.01
19.343291997909546,-0.01,0.0,-0.02,0.02
19.355042934417725,-0.02,0.0,-0.02,0.02
19.36517095565796,-0.01,0.0,-0.01,0.01
19.376052856445312,-0.01,0.01,-0.02,0.02
19.38326406478882,-0.02,0.0,-0.01,0.02
19.393409967422485,-0.01,0.01,-0.01,0.01
19.4047589302063,-0.01,0.0,-0.02,0.02
19.413014888763428,0.0,0.0,0.0,0.0
19.422642946243286,-0.01,0.0,0.0,0.01
19.43273401260376,-0.01,0.0,-0.02,0.02
19.44278907775879,-0.01,0.01,-0.02,0.02
19.454862117767334,-0.02,0.0,-0.01,0.02
19.46460485458374,-0.01,0.0,-0.02,0.02
19.4791100025177,-0.01,0.0,-0.01,0.01
19.48207998275757,-0.01,0.0,-0.02,0.02
19.502733945846558,-0.02,0.01,-0.01,0.02
19.506387948989868,-0.01,0.0,-0.02,0.02
19.512814044952393,-0.01,0.0,-0.02,0.02
19.521651029586792,-0.01,0.0,-0.02,0.02
19.53200912475586,-0.01,0.0,-0.02,0.02
19.542404174804688,-0.01,0.0,-0.01,0.01
19.553277015686035,-0.01,0.0,-0.01,0.01
19.564427852630615,-0.01,0.01,-0.02,0.02
19.57663583755493,-0.01,0.01,-0.02,0.02
19.581761837005615,0.0,0.0,-0.02,0.02
19.591640949249268,-0.02,0.0,-0.01,0.02
19.604655027389526,-0.01,0.01,-0.01,0.01
19.614058017730713,0.0,0.0,-0.02,0.02
19.62508487701416,-0.01,0.01,-0.01,0.01
19.631425857543945,-0.02,0.0,-0.02,0.02
19.64094591140747,-0.02,0.0,-0.02,0.02
19.653053045272827,-0.01,0.0,-0.02,0.02
19.663308143615723,-0.01,0.01,-0.01,0.01
19.675809860229492,-0.01,0.0,-0.01,0.01
19.68108296394348,-0.01,0.01,-0.02,0.02
19.69084405899048,0.0,0.01,-0.01,0.01
19.7014000415802,-0.02,0.0,-0.02,0.02
19.71238398551941,-0.02,0.0,-0.01,0.02
19.723536014556885,-0.01,0.01,-0.01,0.01
19.73076605796814,-0.01,0.0,-0.02,0.02
19.740396976470947,-0.01,0.01,-0.02,0.02
19.7518470287323,-0.01,0.01,-0.02,0.02
19.763128995895386,-0.01,0.01,-0.01,0.01
19.77689504623413,-0.01,0.0,-0.02,0.02
19.78020405769348,-0.01,0.0,-0.02,0.02
19.790043830871582,-0.01,0.0,-0.01,0.01
19.800541877746582,-0.01,0.0,-0.02,0.02
19.81131887435913,-0.01,0.0,-0.02,0.02
19.824331045150757,-0.01,0.0,-0.01,0.01
19.830245971679688,-0.01,-0.01,-0.02,0.02
19.840002059936523,-0.01,0.0,-0.01,0.01
19.849918842315674,-0.01,0.0,-0.01,0.01
19.86219310760498,-0.02,0.01,-0.01,0.02
19.87783694267273,-0.01,0.0,-0.02,0.02
19.87938094139099,-0.01,0.01,-0.01,0.01
19.902481079101562,-0.01,0.0,-0.03,0.03
19.90787410736084,-0.01,0.0,-0.02,0.02
19.912994861602783,-0.01,0.0,-0.01,0.01
19.920907020568848,0.0,0.01,-0.01,0.01
19.929249048233032,-0.01,0.01,-0.02,0.02
19.939133167266846,-0.01,0.0,-0.02,0.02
19.95109987258911,-0.01,0.0,-0.01,0.01
19.961702823638916,-0.01,0.01,-0.02,0.02
19.97274684906006,-0.01,0.01,-0.01,0.01
19.979045867919922,-0.01,0.01,-0.02,0.02
19.988749027252197,-0.01,0.0,-0.02,0.02
20.00007915496826,-0.01,0.0,-0.02,0.02
20.010549068450928,-0.01,0.0,-0.01,0.01
20.023399829864502,-0.01,0.01,-0.02,0.02
20.02860999107361,-0.01,0.01,-0.01,0.01
20.03849697113037,-0.01,0.01,-0.02,0.02
20.048873901367188,-0.01,-0.01,-0.01,0.01
20.060789108276367,-0.02,0.01,-0.01,0.02
20.071436882019043,-0.01,0.0,-0.01,0.01
20.07804012298584,-0.01,0.01,-0.01,0.01
20.088228940963745,-0.01,0.01,-0.02,0.02
20.099634170532227,-0.01,0.01,-0.02,0.02
20.110283851623535,0.0,0.0,-0.02,0.02
20.121859073638916,-0.01,0.0,-0.02,0.02
20.127963066101074,0.0,0.0,-0.01,0.01
20.137744903564453,-0.01,0.01,-0.01,0.01
20.150021076202393,-0.02,0.01,-0.02,0.03
20.159487009048462,-0.01,0.0,-0.02,0.02
20.172909021377563,-0.02,0.0,-0.01,0.02
20.177372932434082,-0.01,0.0,-0.01,0.01
20.18716287612915,-0.01,0.0,-0.01,0.01
20.197699069976807,-0.01,0.0,-0.02,0.02
20.20876693725586,-0.01,0.01,-0.02,0.02
20.22077202796936,-0.01,0.01,-0.02,0.02
20.227139949798584,-0.01,0.01,-0.01,0.01
20.236999988555908,-0.01,0.01,-0.01,0.01
20.249135971069336,-0.01,0.0,-0.01,0.01
20.25889301300049,-0.01,0.0,-0.02,0.02
20.272199153900146,-0.01,0.0,-0.03,0.03
20.276465892791748,-0.01,0.0,-0.02,0.02
20.28674602508545,-0.01,0.0,-0.01,0.01
20.298918962478638,-0.01,0.01,-0.01,0.01
20.308062076568604,-0.01,0.02,-0.01,0.02
20.319483041763306,-0.02,0.0,-0.02,0.02
20.32642412185669,-0.01,0.0,-0.02,0.02
20.336453914642334,-0.01,0.01,-0.01,0.01
20.348928928375244,-0.02,0.0,-0.02,0.02
20.356000900268555,-0.01,0.0,-0.01,0.01
20.366365909576416,-0.01,0.0,-0.02,0.02
20.375921964645386,-0.01,0.01,-0.02,0.02
20.387906074523926,0.0,0.01,-0.02,0.02
20.397865056991577,-0.01,0.01,-0.02,0.02
20.407865047454834,-0.01,-0.01,-0.01,0.01
20.421782970428467,-0.02,0.0,-0.01,0.02
20.42571997642517,-0.01,0.0,-0.01,0.01
20.435678958892822,-0.01,0.0,0.0,0.01
20.448089122772217,-0.01,0.01,-0.01,0.01
20.457183837890625,-0.01,0.0,-0.01,0.01
20.47076988220215,-0.02,0.0,-0.02,0.02
20.47512698173523,0.0,0.01,-0.02,0.02
20.485168933868408,0.0,0.01,-0.02,0.02
20.49582815170288,-0.01,0.01,-0.01,0.01
20.50713014602661,-0.01,-0.01,-0.02,0.02
20.518501043319702,-0.01,0.0,-0.01,0.01
20.524974822998047,-0.01,0.01,-0.01,0.01
20.534940004348755,-0.01,0.01,-0.01,0.01
20.546684980392456,-0.01,0.0,-0.01,0.01
20.556654930114746,-0.01,0.0,-0.02,0.02
20.569403171539307,0.0,0.0,-0.01,0.01
20.57462787628174,-0.01,0.0,-0.02,0.02
20.584621906280518,-0.01,0.01,-0.02,0.02
20.594629049301147,-0.01,0.01,-0.02,0.02
20.60676598548889,-0.01,0.0,-0.02,0.02
20.621603965759277,-0.01,0.0,-0.02,0.02
20.624290943145752,-0.02,0.0,-0.01,0.02
20.63437795639038,-0.01,0.0,-0.02,0.02
20.644431114196777,-0.02,0.0,-0.02,0.02
20.656670093536377,-0.01,0.01,-0.02,0.02
20.668102025985718,-0.01,0.01,-0.01,0.01
20.673856019973755,-0.01,0.0,0.0,0.01
20.684298038482666,-0.01,-0.01,-0.01,0.01
20.69592595100403,-0.01,0.01,-0.01,0.01
20.70532989501953,-0.01,0.01,0.0,0.01
20.718389987945557,-0.01,0.0,0.0,0.01
20.723472118377686,-0.01,-0.01,-0.02,0.02
20.733603954315186,-0.01,0.01,-0.02,0.02
20.74565887451172,-0.02,0.0,-0.02,0.02
20.755632877349854,-0.01,0.0,-0.01,0.01
20.76865816116333,-0.01,0.0,-0.02,0.02
20.772989988327026,-0.01,0.01,-0.02,0.02
20.783270835876465,-0.01,0.01,-0.01,0.01
20.793586015701294,0.0,0.01,-0.02,0.02
20.805580139160156,-0.01,0.0,-0.02,0.02
20.81646704673767,-0.01,0.0,-0.01,0.01
20.82269287109375,-0.01,0.01,-0.01,0.01
20.832916021347046,-0.01,0.01,-0.02,0.02
20.8449809551239,-0.01,0.01,-0.01,0.01
20.854251861572266,-0.01,0.0,-0.01,0.01
20.8663649559021,-0.01,0.01,-0.01,0.01
20.87245798110962,-0.01,0.0,-0.01,0.01
20.882426977157593,-0.01,0.0,-0.01,0.01
20.89468502998352,-0.01,0.0,-0.02,0.02
20.903329849243164,-0.01,0.0,-0.02,0.02
20.917088985443115,-0.02,0.0,-0.01,0.02
20.922432899475098,-0.01,0.0,-0.02,0.02
20.935173988342285,-0.02,-0.01,-0.02,0.03
20.94204807281494,-0.01,0.0,-0.01,0.01
20.95224905014038,-0.01,0.0,-0.01,0.01
20.9617600440979,-0.01,0.01,-0.01,0.01
20.97174882888794,-0.01,0.01,-0.01,0.01
20.9838228225708,-0.01,0.0,-0.01,0.01
20.994632959365845,-0.02,0.01,0.0,0.02
21.00205087661743,-0.01,0.02,-0.02,0.03
21.01196813583374,-0.01,0.01,-0.01,0.01
21.021744966506958,-0.02,0.0,-0.01,0.02
21.03164005279541,-0.01,0.01,-0.02,0.02
21.043761014938354,-0.01,0.01,-0.01,0.01
21.05258798599243,-0.01,0.0,-0.01,0.01
21.06379508972168,-0.01,0.01,-0.01,0.01
21.07090187072754,0.0,0.0,-0.01,0.01
21.081254959106445,-0.01,0.01,-0.01,0.01
21.093329906463623,0.0,0.0,-0.01,0.01
21.101083993911743,-0.01,0.0,-0.01,0.01
21.110551834106445,-0.01,0.0,-0.01,0.01
21.121066093444824,0.0,0.0,-0.02,0.02
21.13298988342285,-0.01,0.01,-0.02,0.02
21.14289093017578,-0.02,0.01,-0.02,0.03
21.15061616897583,-0.01,0.01,-0.01,0.01
21.160560131072998,-0.02,0.01,-0.01,0.02
21.17059302330017,-0.02,0.0,-0.01,0.02
21.180482864379883,-0.01,0.0,-0.02,0.02
21.193016052246094,-0.01,0.01,-0.01,0.01
21.201423168182373,-0.01,0.01,-0.01,0.01
21.214792013168335,0.0,0.01,-0.01,0.01
21.220337867736816,-0.01,0.0,-0.01,0.01
21.232285976409912,0.0,0.0,-0.02,0.02
21.241928100585938,-0.01,0.0,-0.01,0.01
21.250207901000977,-0.01,0.01,-0.02,0.02
21.25967502593994,-0.01,0.0,-0.01,0.01
21.269816875457764,-0.01,0.0,-0.02,0.02
21.280107021331787,-0.01,0.01,-0.01,0.01
21.291996955871582,-0.01,0.0,0.0,0.01
21.29969310760498,-0.01,0.0,-0.01,0.01
21.309519052505493,-0.01,0.01,-0.02,0.02
21.319808959960938,-0.01,0.0,-0.02,0.02
21.32948589324951,-0.01,0.0,-0.01,0.01
21.339805126190186,-0.01,0.0,-0.01,0.01
21.349668979644775,-0.01,0.0,-0.01,0.01
21.361534118652344,0.0,0.01,-0.01,0.01
21.368666172027588,-0.01,0.0,-0.01,0.01
21.380509853363037,-0.02,0.0,-0.02,0.02
21.3901469707489,-0.01,0.0,-0.02,0.02
21.399487018585205,-0.01,0.0,-0.02,0.02
21.408402919769287,-0.01,0.02,-0.02,0.03
21.42076587677002,-0.01,0.0,-0.02,0.02
21.428237915039062,-0.01,0.0,-0.01,0.01
21.440372943878174,-0.01,-0.01,-0.01,0.01
21.449596881866455,-0.01,0.0,-0.01,0.01
21.46129608154297,-0.02,0.0,-0.01,0.02
21.47058916091919,-0.01,0.01,-0.01,0.01
21.47972011566162,-0.01,0.0,-0.02,0.02
21.490560054779053,-0.02,0.01,-0.01,0.02
21.49968695640564,-0.01,0.0,-0.01,0.01
21.50951910018921,-0.01,0.01,-0.01,0.01
21.5178279876709,-0.01,0.0,-0.01,0.01
21.529680013656616,-0.01,0.0,-0.01,0.01
21.540244102478027,-0.01,0.0,-0.02,0.02
21.54823589324951,-0.01,0.0,-0.01,0.01
21.557804107666016,-0.01,0.0,0.0,0.01
21.567720890045166,-0.01,0.0,-0.01,0.01
21.577352046966553,-0.01,0.0,-0.02,0.02
21.5889310836792,-0.01,0.01,-0.01,0.01
21.59888505935669,-0.01,0.0,-0.02,0.02
21.613708019256592,0.0,0.0,-0.01,0.01
21.619904041290283,-0.01,0.01,-0.01,0.01
21.62977695465088,-0.01,0.0,-0.01,0.01
21.64160394668579,-0.01,0.0,-0.01,0.01
21.651721000671387,-0.01,0.0,0.0,0.01
21.66533613204956,-0.01,0.0,-0.01,0.01
21.66975998878479,-0.01,0.0,-0.02,0.02
21.679551124572754,-0.01,0.0,-0.02,0.02
21.689846992492676,-0.01,0.01,-0.01,0.01
21.701602935791016,-0.01,0.0,0.0,0.01
21.713662147521973,-0.01,0.01,-0.01,0.01
21.718940019607544,-0.01,0.0,0.0,0.01
21.733049869537354,0.0,0.01,-0.02,0.02
21.74162483215332,-0.01,0.01,-0.01,0.01
21.749310970306396,-0.02,0.01,-0.02,0.03
21.75962495803833,-0.01,0.01,-0.02,0.02
21.768697023391724,-0.01,0.01,-0.02,0.02
21.77907395362854,-0.01,0.01,-0.02,0.02
21.791362047195435,-0.02,0.01,-0.01,0.02
21.800507068634033,-0.01,0.0,-0.02,0.02
21.810219049453735,-0.01,0.01,-0.01,0.01
21.81807804107666,-0.01,0.01,-0.01,0.01
21.828771114349365,-0.02,0.0,-0.01,0.02
21.838765144348145,-0.01,0.0,-0.01,0.01
21.850229024887085,-0.01,0.01,-0.01,0.01
21.861498832702637,-0.01,0.01,-0.01,0.01
21.868365049362183,0.0,0.01,-0.01,0.01
21.878123998641968,-0.01,0.0,-0.01,0.01
21.889638900756836,-0.01,0.0,-0.01,0.01
21.899492979049683,-0.01,0.01,-0.01,0.01
21.913681030273438,-0.01,0.0,-0.02,0.02
21.917649030685425,-0.01,0.01,-0.02,0.02
21.932875156402588,-0.01,0.01,-0.01,0.01
21.938060998916626,0.0,-0.01,0.0,0.01
21.95046091079712,-0.01,0.0,-0.01,0.01
21.969675064086914,-0.01,0.01,-0.01,0.01
21.97088384628296,0.0,0.0,-0.01,0.01
21.982676029205322,-0.01,0.0,-0.01,0.01
21.98720097541809,-0.01,0.0,-0.01,0.01
21.997205018997192,-0.01,0.0,-0.01,0.01
22.007076025009155,-0.01,0.0,0.0,0.01
22.01712703704834,-0.01,0.0,-0.01,0.01
22.029361963272095,-0.02,0.01,-0.01,0.02
22.03881311416626,-0.02,0.0,-0.02,0.02
22.04703712463379,-0.01,0.01,-0.02,0.02
22.05650496482849,-0.01,0.01,-0.02,0.02
22.066877841949463,-0.01,0.01,-0.01,0.01
22.078593969345093,-0.01,0.0,-0.01,0.01
22.088430881500244,-0.01,0.01,-0.02,0.02
22.098445892333984,-0.01,0.01,-0.01,0.01
22.112319946289062,-0.01,0.01,-0.02,0.02
22.116541862487793,0.0,0.01,-0.01,0.01
22.13748788833618,-0.01,0.0,-0.02,0.02
22.140805959701538,-0.01,0.0,-0.02,0.02
22.14606499671936,-0.01,0.0,-0.01,0.01
22.155980110168457,-0.01,0.01,-0.02,0.02
22.16620111465454,-0.01,0.0,-0.01,0.01
22.178289890289307,0.0,0.02,-0.01,0.02
22.187696933746338,-0.01,0.0,-0.02,0.02
22.196013927459717,0.0,0.0,-0.02,0.02
22.20566701889038,-0.01,0.0,-0.02,0.02
22.215674877166748,-0.01,0.0,-0.02,0.02
22.227545976638794,-0.01,0.01,-0.02,0.02
22.235718965530396,-0.01,0.0,-0.01,0.01
22.247822999954224,-0.01,0.0,-0.02,0.02
22.259647846221924,-0.01,0.0,-0.02,0.02
22.265316009521484,-0.01,0.01,-0.02,0.02
22.27528405189514,-0.01,0.0,-0.02,0.02
22.28571105003357,-0.01,0.01,-0.01,0.01
22.29789400100708,-0.01,0.01,-0.02,0.02
22.308820009231567,-0.01,0.0,-0.01,0.01
22.315160989761353,-0.01,0.01,-0.01,0.01
22.324902057647705,0.0,0.0,-0.01,0.01
22.337113857269287,-0.01,0.0,-0.02,0.02
22.34446907043457,-0.01,0.0,-0.02,0.02
22.35472011566162,-0.01,0.01,-0.02,0.02
22.364574909210205,-0.01,0.01,-0.01,0.01
22.377024173736572,-0.01,0.0,-0.01,0.01
22.386369943618774,-0.01,0.0,-0.02,0.02
22.395730018615723,-0.01,0.0,-0.02,0.02
22.40678095817566,-0.02,0.0,-0.01,0.02
22.414548873901367,-0.01,-0.01,-0.01,0.01
22.42473602294922,-0.02,0.0,0.0,0.02
22.436671018600464,-0.01,0.0,-0.01,0.01
22.44693613052368,-0.01,0.01,-0.02,0.02
22.461590051651,-0.01,0.01,-0.02,0.02
22.463948011398315,-0.01,0.0,-0.01,0.01
22.473809957504272,-0.01,0.01,-0.01,0.01
22.48431396484375,-0.02,0.01,-0.02,0.03
22.49650812149048,-0.01,0.0,-0.01,0.01
22.508651971817017,-0.01,0.0,-0.01,0.01
22.513530015945435,-0.01,0.0,-0.01,0.01
22.52345085144043,-0.02,0.0,-0.02,0.02
22.5348219871521,-0.02,0.0,-0.02,0.02
22.54569697380066,-0.01,0.02,-0.03,0.03
22.557941913604736,-0.01,0.01,-0.01,0.01
22.563404083251953,-0.02,0.0,-0.01,0.02
22.573909997940063,-0.01,0.01,-0.02,0.02
22.584643840789795,-0.01,0.01,-0.02,0.02
22.59507417678833,-0.01,0.0,-0.02,0.02
22.60866403579712,-0.01,0.0,-0.01,0.01
22.61266803741455,-0.01,0.0,-0.01,0.01
22.622478008270264,-0.01,0.0,-0.01,0.01
22.635315895080566,-0.01,0.01,-0.02,0.02
22.64472794532776,-0.01,0.0,-0.01,0.01
22.65699005126953,-0.01,0.0,-0.01,0.01
22.662662982940674,-0.01,0.01,-0.02,0.02
22.67253303527832,-0.01,0.01,-0.01,0.01
22.6827130317688,-0.01,0.01,-0.02,0.02
22.69427800178528,-0.01,0.0,-0.02,0.02
22.706203937530518,-0.01,-0.01,-0.02,0.02
22.712363958358765,0.0,0.01,-0.02,0.02
22.72213888168335,-0.01,0.01,-0.02,0.02
22.734357833862305,-0.01,0.01,-0.01,0.01
22.742239952087402,-0.02,0.0,-0.01,0.02
22.751953125,-0.01,0.01,-0.01,0.01
22.762120962142944,-0.01,0.01,-0.02,0.02
22.772149085998535,-0.01,0.0,-0.02,0.02
22.7842059135437,-0.01,0.0,-0.01,0.01
22.79278802871704,-0.01,0.0,-0.01,0.01
22.808048009872437,-0.02,0.01,-0.01,0.02
22.81132197380066,-0.02,0.0,-0.01,0.02
22.821352005004883,-0.01,0.0,-0.01,0.01
22.832855939865112,-0.01,0.0,-0.01,0.01
22.84271812438965,-0.01,0.0,-0.01,0.01
22.855751991271973,-0.01,0.01,-0.02,0.02
22.86136293411255,-0.01,0.0,-0.01,0.01
22.871100902557373,-0.01,0.0,0.0,0.01
22.8836989402771,-0.02,0.01,-0.01,0.02
22.89326500892639,-0.01,0.01,-0.01,0.01
22.905191898345947,-0.01,0.0,-0.01,0.01
22.911041975021362,-0.02,-0.01,0.0,0.02
22.920922994613647,-0.02,0.01,-0.02,0.03
22.933284997940063,-0.01,0.01,-0.01,0.01
22.94285488128662,0.0,0.0,-0.02,0.02
22.95487689971924,-0.01,0.0,-0.02,0.02
22.960551023483276,-0.01,0.0,-0.01,0.01
22.9707670211792,-0.02,0.0,-0.01,0.02
22.98276400566101,-0.01,0.0,-0.02,0.02
22.99050498008728,-0.01,0.0,0.0,0.01
23.00028395652771,-0.01,0.01,-0.01,0.01
23.009984016418457,-0.01,0.01,-0.01,0.01
23.020230054855347,-0.02,0.0,-0.01,0.02
23.032330989837646,-0.01,0.0,-0.01,0.01
23.041846990585327,0.0,0.0,-0.01,0.01
23.05697011947632,-0.01,0.0,-0.02,0.02
23.05963397026062,-0.02,0.0,0.0,0.02
23.070006847381592,-0.01,0.01,-0.01,0.01
23.079936027526855,-0.01,0.0,-0.01,0.01
23.091073036193848,-0.01,0.0,-0.01,0.01
23.106791973114014,-0.01,0.0,-0.02,0.02
23.109073162078857,-0.01,0.0,-0.02,0.02
23.119549036026,-0.01,0.01,-0.01,0.01
23.129530906677246,-0.01,0.01,-0.01,0.01
23.141881942749023,-0.01,0.0,-0.02,0.02
23.15474796295166,-0.01,-0.01,-0.01,0.01
23.159054040908813,-0.01,0.0,-0.01,0.01
23.169003009796143,-0.01,0.0,-0.02,0.02
23.18114185333252,-0.02,0.0,-0.02,0.02
23.19067096710205,-0.01,0.0,-0.01,0.01
23.20426082611084,-0.02,0.0,-0.02,0.02
23.208565950393677,-0.02,-0.01,-0.01,0.02
23.218885898590088,-0.01,0.01,-0.02,0.02
23.229087829589844,-0.01,0.01,-0.01,0.01
23.240851879119873,-0.01,0.0,-0.02,0.02
23.253962993621826,-0.02,0.0,-0.01,0.02
23.25811004638672,-0.01,0.0,-0.01,0.01
23.268474102020264,-0.01,0.01,-0.02,0.02
23.27850914001465,-0.01,0.01,-0.02,0.02
23.290628910064697,-0.01,0.0,-0.01,0.01
23.303076028823853,-0.01,0.0,-0.02,0.02
23.308148860931396,-0.01,0.01,-0.01,0.01
23.318035125732422,0.0,0.0,-0.01,0.01
23.330198049545288,0.0,0.0,-0.02,0.02
23.33954095840454,0.0,0.0,-0.01,0.01
23.35184597969055,-0.01,0.0,-0.01,0.01
23.357857942581177,0.0,0.0,-0.02,0.02
23.368047952651978,0.0,0.01,-0.01,0.01
23.380321979522705,-0.01,0.01,-0.02,0.02
23.38777208328247,-0.02,0.0,-0.02,0.02
23.397377967834473,-0.01,0.0,-0.01,0.01
23.407243013381958,-0.01,0.01,-0.01,0.01
23.417384147644043,-0.01,0.01,-0.01,0.01
23.429927825927734,0.0,0.0,-0.02,0.02
23.437242031097412,-0.01,0.0,-0.02,0.02
23.446750164031982,-0.01,0.0,-0.02,0.02
23.457354068756104,-0.01,0.0,-0.01,0.01
23.467002868652344,-0.01,0.0,-0.01,0.01
23.480041027069092,-0.02,0.0,-0.02,0.02
23.488494873046875,-0.01,0.0,-0.01,0.01
23.49824094772339,-0.01,0.0,0.0,0.01
23.50663709640503,-0.02,0.01,-0.01,0.02
23.516530990600586,-0.01,0.0,-0.02,0.02
23.526641845703125,-0.01,0.0,-0.01,0.01
23.538347005844116,-0.02,-0.01,-0.01,0.02
23.548570156097412,-0.02,0.0,-0.01,0.02
23.556275844573975,0.0,0.02,-0.01,0.02
23.56683111190796,-0.01,0.0,-0.01,0.01
23.577474117279053,-0.01,0.0,-0.01,0.01
23.588623046875,-0.02,-0.01,-0.01,0.02
23.603759050369263,-0.02,0.0,-0.01,0.02
23.605921983718872,-0.01,0.03,-0.01,0.03
23.616019010543823,-0.01,0.01,-0.02,0.02
23.62847089767456,-0.01,0.0,-0.01,0.01
23.635511875152588,-0.01,0.0,-0.01,0.01
23.64571189880371,-0.01,0.0,0.0,0.01
23.65560007095337,-0.02,0.0,-0.01,0.02
23.665629863739014,-0.01,0.0,0.0,0.01
23.677865982055664,-0.01,0.0,-0.01,0.01
23.685513973236084,-0.01,0.0,-0.01,0.01
23.695358991622925,-0.01,0.0,-0.01,0.01
23.705461025238037,-0.01,0.01,-0.01,0.01
23.71660089492798,-0.01,0.01,-0.01,0.01
23.726262092590332,-0.01,0.01,-0.01,0.01
23.737367153167725,-0.02,0.01,-0.02,0.03
23.755167961120605,-0.02,0.01,-0.01,0.02
23.756650924682617,-0.01,0.0,-0.02,0.02
23.76487398147583,-0.01,0.0,-0.01,0.01
23.774619102478027,-0.01,0.0,-0.01,0.01
23.78691005706787,-0.01,0.0,-0.02,0.02
23.796607971191406,-0.01,0.01,-0.01,0.01
23.804383039474487,-0.01,0.0,-0.01,0.01
23.81481099128723,-0.02,0.0,-0.02,0.02
23.82700490951538,-0.01,0.0,-0.01,0.01
23.835142135620117,-0.01,0.0,-0.01,0.01
23.846694946289062,-0.01,0.01,-0.02,0.02
23.854472160339355,0.0,0.0,-0.01,0.01
23.86456298828125,-0.01,0.0,-0.01,0.01
23.87583899497986,-0.01,0.0,-0.01,0.01
23.88555097579956,-0.01,0.0,-0.01,0.01
23.903282165527344,-0.01,0.01,-0.01,0.01
23.904615879058838,-0.01,0.0,-0.01,0.01
23.913730144500732,-0.01,0.0,-0.01,0.01
23.925891876220703,-0.01,0.01,-0.01,0.01
23.933600902557373,-0.01,0.01,-0.01,0.01
23.94359302520752,-0.01,0.0,0.0,0.01
23.953641891479492,-0.01,0.01,-0.01,0.01
23.96406602859497,-0.02,0.01,-0.02,0.03
23.976068019866943,0.0,0.0,-0.01,0.01
23.9856219291687,-0.02,0.0,0.0,0.02
23.998900890350342,-0.01,0.01,-0.01,0.01
24.00301194190979,-0.01,0.01,-0.02,0.02
24.01595902442932,-0.01,0.01,0.0,0.01
24.023481845855713,-0.01,0.0,-0.01,0.01
24.036867141723633,-0.01,0.01,-0.02,0.02
24.046761989593506,-0.01,0.0,-0.01,0.01
24.05290699005127,-0.01,-0.01,0.0,0.01
24.065973043441772,-0.01,0.0,0.0,0.01
24.074856996536255,-0.01,0.01,-0.01,0.01
24.0843448638916,-0.02,0.01,-0.02,0.03
24.096436023712158,-0.01,0.01,-0.01,0.01
24.102499961853027,0.0,0.0,-0.01,0.01
24.112818002700806,-0.01,0.0,-0.01,0.01
24.12419295310974,-0.01,0.0,0.0,0.01
24.134374141693115,-0.02,0.0,0.0,0.02
24.14777398109436,-0.01,0.01,-0.01,0.01
24.152069091796875,-0.01,0.01,-0.01,0.01
24.162264823913574,-0.02,0.0,-0.02,0.02
24.17337417602539,-0.02,0.0,-0.02,0.02
24.184578895568848,-0.01,0.0,-0.01,0.01
24.20016098022461,-0.02,0.0,-0.01,0.02
24.2017560005188,-0.01,0.0,-0.01,0.01
24.21193790435791,-0.01,0.01,-0.02,0.02
24.221861839294434,-0.01,0.0,-0.01,0.01
24.23187804222107,-0.01,0.0,0.0,0.01
24.242004871368408,-0.01,0.01,0.0,0.01
24.251652002334595,-0.02,0.0,-0.01,0.02
24.261903047561646,-0.01,0.0,-0.02,0.02
24.27344298362732,-0.01,0.01,-0.01,0.01
24.28133487701416,-0.01,0.0,-0.01,0.01
24.29163885116577,-0.01,0.0,-0.01,0.01
24.30128502845764,-0.02,0.0,-0.02,0.02
24.311654090881348,-0.01,0.0,-0.01,0.01
24.32297992706299,-0.01,0.0,0.0,0.01
24.332793951034546,-0.01,0.0,-0.01,0.01
24.34697699546814,-0.01,0.01,-0.01,0.01
24.35072612762451,0.0,0.01,-0.01,0.01
24.360829830169678,-0.02,0.01,0.0,0.02
24.372994899749756,-0.02,0.0,-0.01,0.02
24.380363941192627,-0.02,0.0,-0.01,0.02
24.39036202430725,-0.01,0.0,-0.01,0.01
24.400478839874268,0.0,0.01,-0.02,0.02
24.410399913787842,-0.01,0.01,-0.01,0.01
24.421241998672485,-0.01,0.0,-0.01,0.01
24.431347846984863,-0.01,0.01,-0.01,0.01
24.44445300102234,-0.01,0.0,0.0,0.01
24.449644088745117,-0.01,0.0,0.0,0.01
24.46159315109253,0.0,0.01,-0.01,0.01
24.470797061920166,-0.01,0.01,-0.01,0.01
24.481388092041016,-0.02,-0.01,-0.01,0.02
24.49207592010498,-0.01,-0.01,-0.01,0.01
24.501479148864746,-0.01,0.0,-0.01,0.01
24.51151394844055,-0.01,0.01,-0.01,0.01
24.521111011505127,-0.01,0.0,-0.01,0.01
24.53083300590515,-0.01,0.01,-0.01,0.01
24.54542303085327,-0.01,0.0,-0.01,0.01
24.549492835998535,-0.01,0.0,0.0,0.01
24.559229850769043,-0.01,0.01,-0.01,0.01
24.569590091705322,-0.02,0.01,-0.01,0.02
24.58222198486328,-0.01,0.0,-0.01,0.01
24.596281051635742,-0.02,0.0,-0.01,0.02
24.59892988204956,-0.01,0.0,-0.02,0.02
24.616794109344482,-0.01,0.01,-0.02,0.02
24.619001865386963,-0.01,0.01,-0.01,0.01
24.631814002990723,-0.01,0.0,-0.02,0.02
24.644446849822998,-0.01,0.01,-0.01,0.01
24.64853286743164,-0.01,0.01,-0.01,0.01
24.658491134643555,-0.01,0.0,-0.01,0.01
24.668796062469482,-0.02,0.0,-0.02,0.02
24.681498050689697,-0.01,0.0,-0.01,0.01
24.693387031555176,-0.01,0.01,-0.01,0.01
24.698235988616943,-0.01,0.0,-0.01,0.01
24.707980155944824,-0.01,0.0,-0.01,0.01
24.718655109405518,-0.01,0.01,-0.02,0.02
24.730595111846924,-0.01,0.0,-0.02,0.02
24.74312686920166,-0.02,0.0,-0.01,0.02
24.747966051101685,-0.01,0.0,-0.01,0.01
24.757724046707153,-0.01,0.0,0.0,0.01
24.76817798614502,-0.01,0.0,-0.01,0.01
24.780220985412598,-0.02,0.0,-0.01,0.02
24.797353982925415,-0.01,0.0,-0.02,0.02
24.798786163330078,-0.01,0.0,-0.01,0.01
24.80756402015686,0.0,0.01,-0.02,0.02
24.81748604774475,-0.01,0.0,-0.02,0.02
24.829849004745483,-0.01,0.01,-0.01,0.01
24.84215784072876,0.0,0.01,-0.01,0.01
24.847481966018677,-0.01,0.01,-0.02,0.02
24.85737895965576,-0.01,0.0,0.0,0.01
24.867498874664307,-0.01,-0.01,-0.01,0.01
24.87942886352539,-0.01,0.01,-0.01,0.01
24.89317297935486,-0.01,0.0,-0.01,0.01
24.896667003631592,-0.01,0.01,-0.01,0.01
24.91911506652832,-0.02,0.0,0.0,0.02
24.924381017684937,-0.01,0.0,-0.01,0.01
24.92643904685974,-0.01,0.0,-0.02,0.02
24.936627864837646,-0.02,0.0,-0.01,0.02
24.94675302505493,-0.01,0.0,-0.01,0.01
24.956872940063477,-0.02,0.0,-0.01,0.02
24.96690082550049,-0.01,0.01,-0.01,0.01
24.977673053741455,-0.01,0.01,-0.01,0.01
24.989938020706177,-0.01,0.0,-0.01,0.01
24.996085166931152,-0.01,0.0,-0.01,0.01
25.006003856658936,-0.01,0.0,0.0,0.01
25.016577005386353,-0.01,0.01,-0.02,0.02
25.02837896347046,-0.01,0.0,-0.02,0.02
25.04170298576355,-0.01,0.01,-0.01,0.01
25.045629024505615,-0.01,0.01,0.0,0.01
25.055674076080322,-0.01,0.01,-0.01,0.01
25.065971851348877,0.0,0.01,-0.01,0.01
25.07840895652771,-0.01,-0.01,-0.01,0.01
25.090900897979736,-0.01,0.0,0.0,0.01
25.09574604034424,-0.01,0.0,-0.01,0.01
25.105489015579224,-0.01,0.01,-0.01,0.01
25.117762088775635,-0.02,0.01,-0.02,0.03
25.1283540725708,-0.01,0.0,0.0,0.01
25.141621112823486,0.0,0.01,-0.01,0.01
25.145020008087158,-0.01,0.0,-0.01,0.01
25.155040979385376,-0.01,0.0,0.0,0.01
25.165454864501953,-0.02,0.0,-0.01,0.02
25.177239894866943,-0.01,0.0,-0.01,0.01
25.18748188018799,-0.01,0.0,0.0,0.01
25.194840908050537,-0.01,0.0,0.0,0.01
25.20475697517395,-0.01,0.0,-0.01,0.01
25.21623706817627,-0.01,0.0,-0.01,0.01
25.22655200958252,-0.01,0.0,-0.02,0.02
25.238325119018555,-0.01,0.0,-0.01,0.01
25.244549036026,-0.01,0.0,0.0,0.01
25.25440216064453,-0.01,0.0,-0.02,0.02
25.266457080841064,-0.01,0.0,-0.01,0.01
25.27625298500061,-0.01,0.01,-0.01,0.01
25.28981304168701,-0.01,0.02,-0.01,0.02
25.294026851654053,-0.01,0.01,-0.01,0.01
25.30410385131836,-0.01,0.01,0.0,0.01
25.3143789768219,-0.01,0.0,0.0,0.01
25.32676887512207,0.0,0.0,-0.01,0.01
25.337357997894287,-0.01,0.01,-0.01,0.01
25.34382390975952,-0.01,0.0,0.0,0.01
25.353721141815186,-0.01,0.0,-0.01,0.01
25.365283966064453,-0.01,0.0,-0.01,0.01
25.375957012176514,-0.01,0.0,-0.02,0.02
25.390081882476807,0.0,0.0,0.0,0.0
25.393635034561157,-0.01,0.01,-0.01,0.01
25.403335094451904,-0.01,0.0,-0.01,0.01
25.414981842041016,-0.01,0.0,-0.01,0.01
25.425604820251465,-0.01,0.0,0.0,0.01
25.43993902206421,0.0,0.0,-0.01,0.01
25.443120002746582,-0.01,0.0,0.0,0.01
25.453078985214233,-0.01,0.01,0.0,0.01
25.46328115463257,-0.01,0.01,-0.01,0.01
25.475289821624756,-0.01,0.0,0.0,0.01
25.486848831176758,-0.01,0.0,-0.01,0.01
25.492655992507935,-0.01,0.0,0.0,0.01
25.50257682800293,-0.01,0.01,0.0,0.01
25.51537799835205,0.0,0.0,-0.02,0.02
25.524006843566895,0.0,0.0,-0.01,0.01
25.53432607650757,-0.01,0.0,0.0,0.01
25.542279958724976,-0.01,0.01,-0.01,0.01
25.552291870117188,0.0,0.01,-0.01,0.01
25.562747955322266,-0.01,0.0,0.0,0.01
25.574820041656494,-0.02,0.0,-0.01,0.02
25.590084075927734,-0.02,0.0,-0.02,0.02
25.591658115386963,-0.02,0.0,-0.02,0.02
25.6020610332489,-0.02,0.0,-0.01,0.02
25.61193299293518,-0.01,0.0,-0.01,0.01
25.62210202217102,-0.01,0.0,-0.01,0.01
25.632102966308594,-0.01,0.0,-0.01,0.01
25.641517162322998,-0.01,0.0,-0.01,0.01
25.653898000717163,-0.01,0.0,0.0,0.01
25.663552045822144,-0.01,0.0,-0.01,0.01
25.673115968704224,-0.02,0.0,-0.01,0.02
25.689094066619873,-0.01,0.0,-0.01,0.01
25.691073894500732,-0.01,0.01,-0.01,0.01
25.70135998725891,-0.01,0.01,-0.01,0.01
25.711671829223633,-0.01,-0.01,0.0,0.01
25.723054885864258,-0.01,0.0,-0.01,0.01
25.734236001968384,-0.01,0.01,-0.02,0.02
25.740768909454346,-0.01,0.01,-0.02,0.02
25.751062870025635,-0.01,0.0,-0.01,0.01
25.76334500312805,-0.02,0.0,-0.01,0.02
25.772454977035522,-0.02,0.01,-0.01,0.02
25.78436303138733,-0.02,0.01,-0.01,0.02
25.790751934051514,-0.01,0.0,-0.01,0.01
25.800688982009888,-0.01,0.0,0.0,0.01
25.810914993286133,-0.01,0.01,-0.01,0.01
25.822203159332275,-0.01,0.0,-0.01,0.01
25.83355712890625,-0.01,0.01,0.0,0.01
25.840248107910156,-0.01,0.0,0.0,0.01
25.849937915802002,-0.01,0.0,-0.01,0.01
25.86236596107483,-0.01,0.01,-0.01,0.01
25.87232494354248,-0.01,0.0,-0.02,0.02
25.885572910308838,-0.01,0.0,-0.01,0.01
25.88995599746704,0.0,0.01,-0.01,0.01
25.89995503425598,-0.01,0.01,-0.01,0.01
25.910202980041504,0.0,0.0,-0.01,0.01
25.922515869140625,-0.01,-0.01,-0.02,0.02
25.935336112976074,-0.01,0.0,0.0,0.01
25.939496994018555,-0.01,0.0,-0.01,0.01
25.949606895446777,-0.01,0.0,-0.02,0.02
25.960144996643066,-0.01,0.01,-0.01,0.01
25.972911834716797,-0.02,0.01,0.0,0.02
25.982785940170288,-0.02,0.01,0.0,0.02
25.98962903022766,-0.01,0.0,-0.02,0.02
25.999294996261597,-0.01,0.0,-0.01,0.01
26.01028800010681,-0.01,0.0,-0.01,0.01
26.021160125732422,-0.01,0.0,0.0,0.01
26.033982038497925,-0.01,0.0,-0.01,0.01
26.03867483139038,-0.01,0.01,-0.01,0.01
26.04866600036621,-0.01,0.0,-0.01,0.01
26.060205936431885,-0.02,0.0,-0.01,0.02
26.070938110351562,-0.01,0.0,-0.01,0.01
26.08477783203125,0.0,0.0,-0.02,0.02
26.088268041610718,-0.01,0.01,-0.01,0.01
26.098342895507812,-0.01,0.0,-0.01,0.01
26.108488082885742,-0.02,0.01,-0.01,0.02
26.118489027023315,-0.01,0.0,-0.01,0.01
26.12811803817749,-0.01,-0.01,0.0,0.01
26.138218879699707,-0.01,0.0,0.0,0.01
26.151473999023438,-0.02,0.01,-0.01,0.02
26.15851402282715,-0.01,0.0,-0.01,0.01
26.16984510421753,-0.01,0.01,-0.01,0.01
26.182368993759155,-0.01,0.0,-0.01,0.01
26.188157081604004,-0.02,0.0,0.0,0.02
26.197793006896973,-0.02,0.0,-0.01,0.02
26.2080819606781,-0.01,0.0,-0.01,0.01
26.218788146972656,-0.01,0.0,-0.01,0.01
26.23202610015869,-0.01,0.01,-0.01,0.01
26.237077951431274,-0.01,0.01,-0.01,0.01
26.247591972351074,-0.02,0.0,0.0,0.02
26.25773000717163,-0.01,0.01,-0.02,0.02
26.2694149017334,-0.01,0.0,-0.02,0.02
26.286412954330444,-0.01,0.0,-0.01,0.01
26.28777313232422,-0.01,0.01,-0.01,0.01
26.297154903411865,-0.01,0.01,-0.02,0.02
26.30717396736145,-0.01,0.0,-0.02,0.02
26.319364070892334,-0.01,0.01,-0.01,0.01
26.33323383331299,-0.01,0.0,0.0,0.01
26.336753845214844,-0.01,0.01,-0.02,0.02
26.349348068237305,-0.01,0.01,-0.02,0.02
26.356977939605713,-0.01,0.01,-0.01,0.01
26.368759155273438,-0.01,0.0,0.0,0.01
26.383543968200684,-0.01,0.0,-0.01,0.01
26.386162042617798,0.0,0.0,-0.01,0.01
26.396600008010864,-0.01,0.0,-0.01,0.01
26.40679407119751,-0.02,-0.01,-0.01,0.02
26.418431997299194,-0.02,0.0,0.0,0.02
26.433291912078857,-0.01,0.01,0.0,0.01
26.435794830322266,-0.01,0.01,-0.01,0.01
26.446364879608154,-0.01,0.0,-0.02,0.02
26.45633101463318,-0.01,0.0,-0.01,0.01
26.467801094055176,-0.01,0.01,-0.01,0.01
26.482107162475586,-0.02,0.01,-0.02,0.03
26.485612869262695,-0.01,0.01,-0.01,0.01
26.4959659576416,0.0,0.0,-0.01,0.01
26.506094932556152,-0.01,-0.01,-0.01,0.01
26.51891803741455,-0.02,0.0,-0.02,0.02
26.531219005584717,-0.01,0.0,-0.01,0.01
26.53547191619873,-0.01,0.0,0.01,0.01
26.545300006866455,-0.01,0.0,0.01,0.01
26.556002140045166,-0.01,0.0,0.0,0.01
26.56729507446289,-0.01,0.0,-0.01,0.01
26.58448886871338,-0.01,0.01,0.0,0.01
26.585880041122437,-0.01,0.01,-0.01,0.01
26.602272033691406,0.0,0.01,-0.01,0.01
26.607342958450317,-0.01,0.0,-0.01,0.01
26.614696979522705,-0.01,0.0,0.0,0.01
26.624611854553223,-0.01,0.0,-0.01,0.01
26.63489007949829,-0.01,0.01,-0.02,0.02
26.644912004470825,-0.02,0.0,-0.01,0.02
26.65687894821167,-0.01,0.0,-0.01,0.01
26.664355993270874,-0.02,0.01,-0.01,0.02
26.67458486557007,-0.01,0.01,-0.01,0.01
26.684235095977783,-0.01,0.01,-0.01,0.01
26.694720029830933,-0.01,0.0,-0.01,0.01
26.705628871917725,-0.01,0.0,-0.01,0.01
26.716315984725952,-0.01,0.01,-0.01,0.01
26.733540058135986,-0.01,0.0,-0.01,0.01
26.73490810394287,-0.01,0.01,-0.01,0.01
26.743934154510498,-0.01,0.0,-0.01,0.01
26.754076957702637,-0.01,0.0,-0.01,0.01
26.766182899475098,-0.01,0.01,-0.01,0.01
26.780466079711914,-0.01,0.01,-0.01,0.01
26.78354787826538,-0.01,0.0,-0.01,0.01
26.793673992156982,-0.01,-0.01,-0.01,0.01
26.805613040924072,-0.02,-0.01,-0.01,0.02
26.813416957855225,-0.01,0.0,-0.01,0.01
26.823226928710938,-0.01,0.01,-0.01,0.01
26.833611011505127,-0.02,0.0,0.0,0.02
26.84314799308777,-0.01,0.0,-0.01,0.01
26.85527992248535,-0.01,0.0,-0.02,0.02
26.86542797088623,0.0,0.0,-0.01,0.01
26.879135131835938,0.0,0.0,-0.01,0.01
26.88301396369934,-0.01,0.0,0.0,0.01
26.893001079559326,-0.01,0.01,-0.01,0.01
26.90325403213501,-0.01,0.0,-0.02,0.02
26.915575981140137,-0.02,0.0,-0.01,0.02
26.92687201499939,-0.02,0.0,-0.01,0.02
26.932770013809204,-0.01,0.01,-0.02,0.02
26.942559957504272,-0.01,0.0,-0.01,0.01
26.954571962356567,-0.02,0.0,-0.01,0.02
26.96406102180481,-0.01,-0.01,-0.01,0.01
26.976995944976807,-0.01,0.01,-0.01,0.01
26.982229948043823,-0.01,0.01,-0.02,0.02
26.992149829864502,-0.01,0.0,0.0,0.01
27.002481937408447,-0.02,-0.01,0.0,0.02
27.01501202583313,-0.01,0.01,-0.01,0.01
27.026546001434326,-0.02,0.0,0.0,0.02
27.03188395500183,-0.01,0.0,0.0,0.01
27.050570011138916,-0.01,0.0,-0.02,0.02
27.052371978759766,-0.01,0.0,-0.02,0.02
27.063476085662842,-0.01,0.0,-0.02,0.02
27.077815055847168,-0.01,0.0,-0.01,0.01
27.0816969871521,-0.01,0.01,-0.01,0.01
27.091382026672363,-0.02,0.01,-0.01,0.02
27.103951930999756,-0.01,0.01,0.0,0.01
27.113099098205566,-0.01,0.01,-0.01,0.01
27.1253080368042,-0.02,0.01,-0.02,0.03
27.13141894340515,-0.01,0.01,-0.01,0.01
27.14149284362793,-0.01,0.0,-0.01,0.01
27.153462886810303,-0.01,0.01,-0.01,0.01
27.160982131958008,-0.01,0.01,-0.01,0.01
27.17110300064087,-0.01,0.0,-0.02,0.02
27.18113398551941,-0.01,0.01,-0.01,0.01
27.192301988601685,-0.01,0.01,-0.01,0.01
27.20267105102539,-0.01,0.0,-0.01,0.01
27.211997985839844,-0.01,0.0,-0.01,0.01
27.22658109664917,-0.01,0.0,-0.01,0.01
27.230427980422974,-0.01,0.0,0.0,0.01
27.24030900001526,-0.01,0.0,0.0,0.01
27.252526998519897,-0.01,0.01,-0.02,0.02
27.261384963989258,-0.01,0.01,-0.02,0.02
27.27126693725586,-0.01,-0.01,-0.02,0.02
27.280520915985107,-0.01,0.0,-0.01,0.01
27.289937019348145,-0.01,0.0,-0.01,0.01
27.300585985183716,-0.02,-0.01,0.0,0.02
27.312435150146484,-0.02,0.0,-0.01,0.02
27.32588505744934,-0.01,0.01,-0.01,0.01
27.329914093017578,-0.01,0.01,-0.02,0.02
27.33991289138794,-0.01,0.01,-0.01,0.01
27.349770069122314,-0.02,0.01,-0.01,0.02
27.362218856811523,-0.01,0.0,-0.01,0.01
27.37306785583496,-0.01,0.0,-0.01,0.01
27.379677057266235,-0.01,0.0,-0.01,0.01
27.391860961914062,-0.02,0.0,-0.01,0.02
27.401108026504517,-0.01,0.01,-0.01,0.01
27.409462928771973,-0.01,0.01,-0.02,0.02
27.419572830200195,-0.01,0.0,-0.01,0.01
27.429376125335693,-0.01,0.01,-0.01,0.01
27.43929100036621,-0.01,0.01,-0.01,0.01
27.450729846954346,-0.01,0.0,-0.01,0.01
27.46125102043152,-0.02,0.0,-0.01,0.02
27.47464895248413,-0.01,0.01,-0.01,0.01
27.478588104248047,-0.01,0.01,0.0,0.01
27.488801956176758,-0.01,-0.01,-0.01,0.01
27.49871587753296,-0.01,0.0,-0.01,0.01
27.511361122131348,-0.02,0.01,-0.02,0.03
27.521567821502686,-0.02,0.0,-0.01,0.02
27.52871799468994,-0.01,0.01,-0.01,0.01
27.538421154022217,-0.01,0.01,-0.01,0.01
27.548372983932495,-0.01,0.01,0.0,0.01
27.560154914855957,-0.01,0.01,-0.01,0.01
27.572472095489502,-0.01,0.0,-0.01,0.01
27.577996015548706,-0.01,0.0,-0.01,0.01
27.58809995651245,-0.01,0.0,-0.02,0.02
27.600069046020508,-0.02,0.0,-0.02,0.02
27.610207080841064,-0.01,0.0,-0.01,0.01
27.622496128082275,-0.01,0.0,-0.02,0.02
27.62780499458313,-0.01,0.0,-0.02,0.02
27.637753009796143,-0.01,0.0,-0.01,0.01
27.64908194541931,-0.01,0.0,-0.01,0.01
27.659782886505127,-0.02,0.0,-0.01,0.02
27.67545509338379,-0.01,0.0,0.0,0.01
27.677149057388306,-0.01,0.0,-0.01,0.01
27.687439918518066,-0.01,-0.01,-0.01,0.01
27.69741916656494,-0.01,0.0,-0.01,0.01
27.707286834716797,-0.02,0.0,-0.01,0.02
27.7173969745636,-0.02,0.01,-0.01,0.02
27.727169036865234,-0.02,0.0,-0.01,0.02
27.737074851989746,0.0,0.0,-0.01,0.01
27.749855041503906,-0.01,0.0,-0.02,0.02
27.759262084960938,-0.02,0.0,-0.01,0.02
27.77383804321289,-0.01,0.0,0.0,0.01
27.776692867279053,-0.01,0.0,-0.01,0.01
27.786756992340088,-0.02,-0.01,-0.01,0.02
27.797132968902588,-0.01,0.0,-0.01,0.01
27.809456825256348,-0.02,0.0,0.0,0.02
27.821858882904053,-0.01,0.0,-0.02,0.02
27.826308965682983,-0.01,0.0,-0.01,0.01
27.836341857910156,-0.01,0.01,-0.01,0.01
27.846835136413574,-0.02,0.0,-0.01,0.02
27.85895800590515,-0.02,0.01,-0.02,0.03
27.871857166290283,-0.02,0.01,-0.02,0.03
27.875691890716553,-0.02,0.01,-0.01,0.02
27.886050939559937,-0.01,0.01,0.0,0.01
27.896484851837158,-0.02,0.01,-0.02,0.03
27.908283948898315,-0.02,0.01,0.0,0.02
27.921247005462646,-0.01,0.01,-0.01,0.01
27.92576313018799,0.0,0.0,-0.01,0.01
27.935714960098267,-0.01,-0.01,-0.01,0.01
27.945731163024902,-0.01,0.01,-0.01,0.01
27.957682132720947,-0.01,0.0,-0.01,0.01
27.969144821166992,-0.02,0.0,-0.01,0.02
27.97522783279419,-0.02,0.0,-0.01,0.02
27.985453128814697,-0.02,0.0,0.0,0.02
27.99772882461548,-0.01,0.0,0.0,0.01
28.005538940429688,-0.02,-0.01,-0.01,0.02
28.01572895050049,-0.01,0.0,0.0,0.01
28.02513885498047,-0.01,0.01,0.0,0.01
28.035051822662354,-0.01,0.0,-0.01,0.01
28.046908855438232,-0.01,0.0,0.0,0.01
28.056813955307007,-0.01,0.01,-0.01,0.01
28.069180011749268,-0.02,0.0,-0.01,0.02
28.07456684112549,-0.02,0.0,0.0,0.02
28.08470106124878,-0.01,0.0,-0.01,0.01
28.09458899497986,-0.02,0.0,-0.01,0.02
28.106505870819092,-0.01,0.0,-0.01,0.01
28.1186740398407,-0.01,0.0,-0.01,0.01
28.124366998672485,-0.02,0.01,0.0,0.02
28.134485006332397,-0.02,0.0,0.0,0.02
28.147296905517578,-0.01,0.01,0.0,0.01
28.154369831085205,-0.01,0.0,-0.01,0.01
28.164376974105835,-0.01,0.0,-0.02,0.02
28.173969984054565,-0.02,0.01,0.0,0.02
28.18433403968811,-0.01,0.0,0.0,0.01
28.1962308883667,-0.01,0.0,-0.01,0.01
28.204795837402344,-0.01,0.0,-0.01,0.01
28.216969966888428,-0.01,0.0,-0.01,0.01
28.223702907562256,-0.02,0.0,-0.01,0.02
28.234029054641724,-0.01,0.0,0.0,0.01
28.245537996292114,-0.01,0.0,-0.01,0.01
28.25487494468689,-0.01,-0.01,-0.01,0.01
28.26946997642517,-0.01,0.0,-0.01,0.01
28.27310800552368,-0.01,0.0,-0.01,0.01
28.2832350730896,-0.01,0.01,-0.01,0.01
28.29527497291565,-0.01,0.0,0.0,0.01
28.304777145385742,-0.01,0.0,-0.01,0.01
28.318449020385742,0.0,0.0,-0.02,0.02
28.32271099090576,-0.01,0.01,-0.01,0.01
28.33255386352539,-0.01,0.0,-0.01,0.01
28.342736959457397,-0.01,0.0,-0.01,0.01
28.3544499874115,-0.01,0.01,-0.01,0.01
28.368028163909912,-0.01,-0.01,-0.01,0.01
28.372164011001587,-0.01,-0.01,-0.01,0.01
28.38244104385376,-0.01,0.0,-0.01,0.01
28.392863988876343,-0.02,0.0,-0.02,0.02
28.404937982559204,-0.01,0.0,-0.01,0.01
28.417713165283203,-0.01,0.01,0.0,0.01
28.422054052352905,-0.01,0.0,0.0,0.01
28.43194007873535,-0.01,0.0,0.0,0.01
28.444255828857422,-0.02,0.0,0.0,0.02
28.453775882720947,-0.01,0.0,0.0,0.01
28.467071056365967,-0.01,0.0,0.0,0.01
28.472141981124878,-0.02,0.01,-0.02,0.03
28.48193883895874,-0.01,0.0,0.0,0.01
28.491848945617676,-0.01,0.0,0.0,0.01
28.50388813018799,-0.01,0.0,-0.01,0.01
28.516623973846436,-0.01,0.0,-0.01,0.01
28.521603107452393,-0.01,-0.01,-0.01,0.01
28.53157901763916,-0.01,0.0,0.0,0.01
28.544116973876953,-0.02,0.0,-0.01,0.02
28.553004026412964,-0.01,0.0,0.0,0.01
28.566035985946655,-0.02,0.0,0.01,0.02
28.571180820465088,-0.01,0.0,-0.02,0.02
28.582247972488403,0.0,0.0,-0.02,0.02
28.59144687652588,-0.01,0.0,-0.01,0.01
28.602839946746826,-0.02,0.01,-0.01,0.02
28.616294860839844,-0.01,0.01,-0.01,0.01
28.620527982711792,-0.01,0.01,-0.01,0.01
28.63105797767639,-0.02,0.0,0.0,0.02
28.641299962997437,-0.01,0.01,-0.01,0.01
28.653084993362427,-0.01,0.0,0.0,0.01
28.66419792175293,-0.02,0.0,-0.01,0.02
28.670544147491455,-0.01,0.0,-0.01,0.01
28.68053913116455,-0.01,0.0,-0.01,0.01
28.692573070526123,-0.01,0.0,-0.02,0.02
28.70216989517212,-0.02,0.01,-0.01,0.02
28.71509885787964,-0.01,0.01,-0.01,0.01
28.72021198272705,-0.01,-0.01,-0.01,0.01
28.730334043502808,-0.01,0.0,-0.02,0.02
28.74014401435852,-0.01,0.01,-0.01,0.01
28.75220489501953,-0.01,0.01,0.0,0.01
28.76506805419922,-0.02,0.0,-0.02,0.02
28.769691944122314,-0.02,-0.01,0.0,0.02
28.78244400024414,-0.01,0.0,0.0,0.01
28.78963613510132,0.0,0.0,-0.01,0.01
28.799904823303223,-0.01,0.0,0.0,0.01
28.81008005142212,-0.01,0.01,0.0,0.01
28.819350957870483,-0.01,0.01,-0.01,0.01
28.829862117767334,-0.01,0.0,0.0,0.01
28.84162187576294,-0.02,0.0,0.0,0.02
28.849447011947632,-0.01,0.0,-0.01,0.01
28.859194040298462,-0.02,0.0,-0.01,0.02
28.869269847869873,-0.01,0.01,-0.01,0.01
28.881754875183105,-0.01,-0.01,-0.02,0.02
28.890581130981445,-0.02,0.0,-0.02,0.02
28.90059804916382,-0.02,0.01,0.0,0.02
28.913506031036377,-0.02,0.01,-0.01,0.02
28.91900897026062,-0.01,0.0,0.0,0.01
28.928822994232178,-0.01,0.0,-0.01,0.01
28.938857078552246,-0.01,0.0,0.0,0.01
28.950114011764526,-0.01,0.0,0.0,0.01
28.96168804168701,-0.01,0.01,-0.01,0.01
28.968172073364258,-0.01,0.01,-0.01,0.01
28.97858500480652,-0.02,0.0,0.0,0.02
28.990463972091675,-0.01,0.0,0.0,0.01
28.999871015548706,-0.02,0.0,0.0,0.02
29.012671947479248,-0.01,0.0,-0.01,0.01
29.01799201965332,-0.01,0.0,-0.01,0.01
29.02812695503235,-0.01,0.01,0.0,0.01
29.038032054901123,-0.01,0.01,0.0,0.01
29.05086898803711,-0.02,0.0,-0.01,0.02
29.067144870758057,-0.02,-0.01,-0.01,0.02
29.06836986541748,-0.02,-0.01,0.0,0.02
29.077919960021973,-0.01,0.0,-0.01,0.01
29.087556838989258,-0.01,0.0,0.0,0.01
29.097917079925537,-0.01,0.01,-0.01,0.01
29.10861110687256,-0.01,0.01,-0.02,0.02
29.11749792098999,-0.02,0.0,-0.01,0.02
29.127660989761353,-0.01,0.0,-0.01,0.01
29.139667987823486,-0.02,0.01,0.0,0.02
29.147275924682617,-0.02,0.0,-0.01,0.02
29.15745210647583,-0.01,0.0,-0.01,0.01
29.167075157165527,-0.01,-0.01,0.0,0.01
29.17716407775879,-0.02,0.01,-0.02,0.03
29.189486980438232,-0.01,0.01,0.0,0.01
29.19884204864502,-0.02,-0.01,0.0,0.02
29.211019039154053,-0.01,0.01,-0.01,0.01
29.21652603149414,-0.02,0.0,-0.01,0.02
29.233034133911133,-0.01,0.01,-0.01,0.01
29.23635697364807,-0.01,0.0,0.0,0.01
29.251157999038696,0.0,0.0,0.0,0.0
29.26082992553711,-0.01,0.01,0.0,0.01
29.2663631439209,-0.02,0.01,-0.01,0.02
29.276235103607178,-0.01,-0.01,-0.01,0.01
29.286416053771973,-0.02,0.0,0.0,0.02
29.298475980758667,-0.01,0.0,-0.01,0.01
29.31269598007202,-0.01,0.01,-0.01,0.01
29.315634965896606,-0.01,0.0,-0.01,0.01
29.3259859085083,-0.02,0.01,-0.01,0.02
29.33632183074951,-0.01,-0.01,-0.01,0.01
29.348502159118652,-0.01,0.0,0.0,0.01
29.360676050186157,-0.01,0.0,-0.01,0.01
29.36550283432007,-0.01,0.01,-0.01,0.01
29.375404834747314,-0.01,0.01,0.0,0.01
29.38785195350647,-0.02,0.0,-0.01,0.02
29.39731216430664,-0.02,-0.01,0.0,0.02
29.40925097465515,-0.01,0.0,0.0,0.01
29.41549301147461,-0.02,0.01,-0.01,0.02
29.424996852874756,-0.02,0.01,-0.01,0.02
29.435277938842773,-0.01,-0.01,-0.02,0.02
29.447160005569458,-0.01,-0.01,-0.01,0.01
29.460664987564087,-0.01,0.01,0.0,0.01
29.46480894088745,-0.01,0.01,-0.01,0.01
29.48546004295349,-0.01,0.0,-0.01,0.01
29.490453004837036,-0.02,0.01,0.0,0.02
29.495023012161255,-0.01,0.0,0.0,0.01
29.50574803352356,-0.02,-0.01,-0.01,0.02
29.515891075134277,-0.01,0.0,0.0,0.01
29.524368047714233,-0.01,0.0,0.0,0.01
29.536603927612305,-0.01,0.01,-0.01,0.01
29.545669078826904,-0.01,0.01,-0.01,0.01
29.559281826019287,-0.01,0.0,0.0,0.01
29.5639591217041,-0.01,-0.01,0.0,0.01
29.57403802871704,-0.01,0.0,-0.01,0.01
29.586109161376953,-0.01,0.02,-0.01,0.02
29.5958309173584,-0.01,0.01,0.0,0.01
29.60849094390869,-0.01,0.0,0.0,0.01
29.61391305923462,-0.01,0.0,-0.02,0.02
29.62367010116577,-0.01,0.0,-0.01,0.01
29.633832931518555,-0.02,0.0,-0.02,0.02
29.646006107330322,-0.02,0.0,-0.01,0.02
29.66381597518921,-0.01,0.01,-0.01,0.01
29.665212154388428,-0.01,0.01,0.0,0.01
29.673161029815674,-0.01,0.01,0.0,0.01
29.683866024017334,-0.02,0.0,0.0,0.02
29.695646047592163,-0.01,0.0,-0.01,0.01
29.70564317703247,-0.01,0.0,-0.01,0.01
29.713413953781128,-0.01,0.01,0.0,0.01
29.72312903404236,-0.01,0.0,-0.02,0.02
29.735532999038696,-0.01,-0.01,-0.01,0.01
29.744792938232422,-0.01,0.0,0.0,0.01
29.756764888763428,-0.02,0.0,-0.01,0.02
29.76265287399292,-0.02,0.01,0.0,0.02
29.772873878479004,-0.01,0.0,-0.02,0.02
29.782690048217773,-0.01,0.0,-0.02,0.02
29.795160055160522,-0.01,-0.01,-0.01,0.01
29.811849117279053,-0.01,0.01,-0.01,0.01
29.813020944595337,-0.01,0.01,-0.01,0.01
29.822422981262207,-0.01,0.0,0.0,0.01
29.83284282684326,-0.01,0.0,-0.02,0.02
29.84457015991211,-0.01,0.01,-0.01,0.01
29.85815715789795,-0.01,-0.01,-0.02,0.02
29.862017154693604,-0.01,0.01,-0.01,0.01
29.871997833251953,-0.01,0.01,-0.01,0.01
29.88256311416626,-0.01,0.0,-0.02,0.02
29.894836902618408,-0.01,0.01,-0.01,0.01
29.905976057052612,-0.02,0.0,-0.01,0.02
29.911858081817627,-0.01,0.0,-0.01,0.01
29.921793937683105,-0.01,0.0,0.0,0.01
29.931763172149658,-0.01,0.01,-0.01,0.01
29.943564891815186,-0.01,0.01,-0.01,0.01
29.95870304107666,-0.01,0.01,-0.01,0.01
29.9613938331604,-0.02,0.01,-0.01,0.02
29.97136902809143,-0.01,0.0,-0.01,0.01
29.98133897781372,-0.01,0.0,-0.01,0.01
29.99356198310852,-0.01,0.0,0.0,0.01
