time,ax,ay,az,atotal
0.01399087905883789,0.09,0.15,-0.08,0.19
0.01663684844970703,0.12,0.39,-0.24,0.47
0.025494813919067383,0.14,0.24,-0.09,0.29
0.035888671875,0.07,0.07,0.02,0.1
0.04531097412109375,-0.07,-0.07,0.02,0.1
0.0555567741394043,-0.16,-0.16,0.1,0.24
0.06585073471069336,-0.18,-0.25,0.17,0.35
0.07582569122314453,-0.18,-0.26,0.12,0.33
0.08559679985046387,-0.15,-0.19,0.08,0.25
0.09572076797485352,-0.08,-0.13,0.05,0.16
0.10738682746887207,-0.03,-0.09,0.05,0.1
0.11702775955200195,0.0,-0.11,0.05,0.12
0.12636375427246094,0.0,-0.2,0.07,0.21
0.13524580001831055,0.03,-0.25,0.12,0.27
0.14571285247802734,0.06,-0.25,0.14,0.29
0.1552138328552246,0.09,-0.19,0.13,0.24
0.16457796096801758,0.12,-0.14,0.1,0.2
0.17535877227783203,0.13,-0.12,0.07,0.19
0.18552494049072266,0.17,-0.12,0.14,0.25
0.1948866844177246,0.17,-0.13,0.16,0.26
0.20567798614501953,0.14,-0.14,0.12,0.23
0.21491384506225586,0.13,-0.14,0.14,0.23
0.2258930206298828,0.1,-0.07,0.15,0.19
0.23583579063415527,0.0,0.0,0.08,0.08
0.24578285217285156,-0.06,0.04,0.06,0.09
0.25606489181518555,-0.08,0.03,0.08,0.11
0.2657637596130371,-0.07,-0.01,0.15,0.16
0.27465200424194336,-0.07,-0.02,0.11,0.13
0.2843790054321289,-0.07,-0.03,0.05,0.09
0.2943418025970459,-0.03,0.01,0.06,0.06
0.30515289306640625,0.0,0.07,0.06,0.09
0.3141918182373047,-0.02,0.09,0.04,0.1
0.32553768157958984,-0.05,0.08,0.03,0.09
0.33408379554748535,-0.06,0.07,0.05,0.1
0.34520983695983887,-0.05,0.11,0.07,0.13
0.3552567958831787,-0.05,0.14,0.06,0.16
0.36463189125061035,-0.05,0.2,0.06,0.21
0.3737349510192871,-0.06,0.25,0.02,0.25
0.38406991958618164,-0.07,0.29,-0.02,0.29
0.39467668533325195,-0.09,0.29,-0.03,0.3
0.4036989212036133,-0.09,0.26,-0.05,0.27
0.41455698013305664,-0.08,0.2,-0.06,0.22
0.4247879981994629,-0.05,0.16,-0.06,0.17
0.43418288230895996,0.0,0.16,-0.03,0.16
0.44336390495300293,0.02,0.2,0.0,0.2
0.45289182662963867,0.01,0.26,-0.01,0.26
0.4630608558654785,-0.02,0.28,-0.03,0.28
0.4740109443664551,-0.05,0.27,-0.03,0.27
0.48366880416870117,-0.06,0.26,0.0,0.26
0.4928598403930664,-0.06,0.27,0.05,0.28
0.5044159889221191,-0.1,0.23,0.04,0.25
0.5133168697357178,-0.15,0.17,0.03,0.22
0.5237269401550293,-0.17,0.16,0.08,0.24
0.533390998840332,-0.19,0.17,0.11,0.27
0.5427098274230957,-0.23,0.14,0.11,0.29
0.5536878108978271,-0.25,0.1,0.09,0.28
0.5632028579711914,-0.27,0.04,0.09,0.28
0.5735058784484863,-0.27,-0.03,0.1,0.28
0.5830769538879395,-0.15,-0.07,0.1,0.19
0.5933048725128174,0.05,-0.1,0.03,0.11
0.6034548282623291,0.11,-0.06,-0.05,0.13
0.6131939888000488,0.09,0.02,-0.06,0.11
0.6233429908752441,0.05,0.07,-0.08,0.11
0.6328728199005127,-0.01,0.12,-0.08,0.14
0.6429886817932129,-0.09,0.12,-0.07,0.16
0.6535718441009521,-0.18,0.04,-0.04,0.18
0.6627779006958008,-0.19,-0.07,0.01,0.2
0.6728940010070801,-0.19,-0.11,0.03,0.22
0.682196855545044,-0.18,-0.06,0.03,0.19
0.6925339698791504,-0.17,0.02,0.0,0.17
0.7027087211608887,-0.16,0.11,-0.03,0.19
0.7123978137969971,-0.14,0.13,-0.07,0.2
0.722498893737793,-0.09,0.07,-0.08,0.13
0.7325687408447266,-0.01,0.02,-0.03,0.03
0.7423210144042969,0.04,0.01,-0.02,0.04
0.7525529861450195,0.07,0.05,-0.03,0.09
0.7618527412414551,0.04,0.13,-0.09,0.16
0.7721807956695557,-0.03,0.18,-0.08,0.19
0.7818968296051025,-0.12,0.21,-0.04,0.24
0.7919678688049316,-0.23,0.19,0.0,0.29
0.8023028373718262,-0.28,0.14,0.05,0.31
0.8114876747131348,-0.29,0.1,0.09,0.31
0.8217897415161133,-0.29,0.07,0.1,0.31
0.8314146995544434,-0.26,0.04,0.12,0.28
0.8416547775268555,-0.2,-0.01,0.09,0.21
0.8516058921813965,-0.11,-0.05,0.07,0.13
0.8676466941833496,-0.03,-0.02,0.02,0.04
0.8715178966522217,0.05,0.23,-0.59,0.63
0.8804788589477539,0.38,0.29,-0.22,0.52
0.8912749290466309,0.32,0.22,-0.34,0.51
0.9011209011077881,0.21,0.07,-0.19,0.29
0.910064697265625,0.01,-0.02,-0.06,0.06
0.9213647842407227,-0.19,-0.06,0.07,0.21
0.9315757751464844,-0.32,-0.05,0.2,0.38
0.9397838115692139,-0.41,-0.09,0.26,0.49
0.9507288932800293,-0.44,-0.13,0.33,0.56
0.9595417976379395,-0.54,-0.13,0.35,0.65
0.9889869689941406,-0.59,-0.1,0.2,0.63
1.0035467147827148,-0.37,-0.08,0.18,0.41
1.0053768157958984,-0.15,-0.06,0.2,0.25
1.0070247650146484,0.01,-0.04,0.16,0.16
1.0275287628173828,0.15,-0.03,0.12,0.19
1.029153823852539,0.27,0.01,0.05,0.27
1.0436038970947266,0.35,0.08,0.01,0.35
1.0453147888183594,0.4,0.14,0.0,0.42
1.0605859756469727,0.44,0.21,-0.01,0.48
1.062283992767334,0.47,0.32,-0.05,0.57
1.0821137428283691,0.5,0.43,-0.09,0.66
1.090242862701416,0.53,0.5,-0.08,0.73
1.0920677185058594,0.57,0.56,-0.08,0.8
1.1108407974243164,0.6,0.59,-0.09,0.84
1.1125407218933105,0.61,0.44,-0.11,0.76
1.130863904953003,0.71,0.16,0.01,0.72
1.139050006866455,0.88,0.0,0.17,0.89
1.1408767700195312,1.02,0.01,0.26,1.05
1.1601908206939697,1.09,-0.01,0.3,1.13
1.1624317169189453,1.08,-0.08,0.28,1.11
1.1785337924957275,1.05,-0.06,0.4,1.12
1.1871278285980225,0.95,0.01,0.37,1.01
1.1905317306518555,0.9,0.23,0.2,0.95
1.196300983428955,1.02,0.59,-0.07,1.18
1.2114238739013672,1.25,0.82,-0.15,1.5
1.2167539596557617,1.39,0.78,0.12,1.59
1.2259588241577148,1.36,0.38,0.45,1.48
1.23628568649292,1.24,-0.08,0.55,1.35
1.2464380264282227,1.16,0.01,0.61,1.31
1.2587988376617432,1.04,0.41,0.59,1.26
1.2680788040161133,0.79,0.51,0.6,1.11
1.278972864151001,0.4,0.27,0.73,0.87
1.2859368324279785,0.19,0.37,1.15,1.22
1.2954649925231934,-0.03,0.45,0.77,0.89
1.3084049224853516,-0.2,0.78,0.52,0.95
1.3153069019317627,-0.39,0.96,0.27,1.07
1.325629711151123,-0.58,0.91,0.28,1.11
1.3355228900909424,-0.66,0.91,0.46,1.21
1.347970962524414,-0.8,0.96,0.19,1.26
1.3555879592895508,-0.86,0.75,-0.06,1.14
1.3676438331604004,-0.68,0.47,0.32,0.88
1.379194736480713,-0.63,0.05,0.64,0.89
1.3850018978118896,-0.86,-0.31,0.55,1.06
1.3947548866271973,-1.06,-0.38,0.57,1.26
1.405371904373169,-1.1,-0.03,0.68,1.29
1.4165477752685547,-1.3,0.19,0.46,1.39
1.4289958477020264,-1.64,-0.16,0.23,1.66
1.4345078468322754,-1.64,-0.53,0.28,1.74
1.4443140029907227,-1.4,-0.5,0.25,1.5
1.4547948837280273,-1.25,-0.5,0.13,1.35
1.4665968418121338,-1.2,-0.72,0.02,1.39
1.4762897491455078,-0.99,-0.84,0.08,1.3
1.4845619201660156,-0.82,-0.66,-0.07,1.05
1.494710922241211,-0.86,-0.57,-0.21,1.05
1.5069217681884766,-0.82,-0.58,-0.19,1.02
1.514474868774414,-0.65,-0.39,-0.07,0.76
1.523941993713379,-0.5,-0.11,-0.06,0.51
1.5340487957000732,-0.38,0.12,-0.11,0.41
1.5440549850463867,-0.19,0.56,-0.24,0.63
1.5566020011901855,-0.03,0.73,-0.33,0.8
1.5640528202056885,-0.02,0.51,-0.31,0.59
1.5735507011413574,-0.08,0.38,-0.3,0.49
1.5840849876403809,-0.08,0.42,-0.33,0.54
1.598766803741455,-0.02,0.51,-0.3,0.59
1.6037507057189941,0.01,0.51,-0.29,0.58
1.6154248714447021,-0.01,0.47,-0.45,0.65
1.6266918182373047,-0.96,-4.7,0.08,4.79
1.6334338188171387,-0.26,0.92,-0.46,1.06
1.644028902053833,-0.05,0.21,-0.23,0.31
1.6533029079437256,0.13,0.07,-0.42,0.44
1.6650338172912598,0.13,0.42,-0.34,0.55
1.6771259307861328,0.22,-0.29,-0.3,0.47
1.68290376663208,0.29,-0.5,-0.02,0.57
1.6956508159637451,0.2,-0.11,-0.1,0.24
1.7030386924743652,-0.02,-0.38,-0.05,0.38
1.7151048183441162,-0.7,-0.1,-2.13,2.24
1.7254388332366943,-1.17,0.23,-0.14,1.2
1.7327678203582764,0.31,0.07,0.23,0.39
1.74833083152771,0.11,0.02,0.09,0.14
1.7524409294128418,0.16,0.36,-0.03,0.39
1.7645130157470703,-0.22,-0.06,0.03,0.23
1.7745778560638428,-1.68,-1.0,0.6,2.04
1.7823877334594727,-1.43,-0.96,0.94,1.96
1.7938637733459473,-0.59,-0.53,0.55,0.96
1.8024969100952148,-0.27,0.16,0.52,0.6
1.8137738704681396,-0.18,-0.01,0.49,0.52
1.8242988586425781,-0.03,0.0,0.37,0.37
1.8317668437957764,0.15,0.15,0.18,0.27
1.8446338176727295,0.23,0.09,0.12,0.27
1.8540148735046387,0.24,0.05,0.17,0.29
1.86191987991333,0.31,0.08,0.09,0.33
1.8716087341308594,0.3,-0.03,0.07,0.3
1.8816957473754883,0.07,0.1,0.09,0.15
1.892063856124878,-0.02,0.04,0.0,0.04
1.9045398235321045,-0.15,0.05,0.13,0.2
1.9116528034210205,-0.05,0.06,0.26,0.27
1.9212217330932617,0.04,0.04,0.29,0.29
1.931290864944458,0.22,0.11,0.4,0.46
1.9441699981689453,0.32,0.05,0.56,0.64
1.9514007568359375,0.73,0.11,0.91,1.17
1.9631078243255615,1.36,0.27,0.92,1.66
1.973106861114502,0.4,-0.26,-6.83,6.84
1.9809868335723877,0.04,-0.35,-1.57,1.6
1.9941887855529785,1.47,0.35,2.04,2.53
2.0011959075927734,-0.21,0.2,0.73,0.78
2.015535831451416,-0.34,-0.01,0.03,0.34
2.023789882659912,-0.44,-0.01,-0.39,0.58
2.0307469367980957,0.19,0.01,-0.28,0.33
2.040588855743408,1.1,0.17,0.0,1.11
2.052982807159424,1.44,-0.19,-0.58,1.56
2.060361862182617,1.59,-0.01,0.26,1.61
2.070105791091919,1.18,0.04,0.42,1.25
2.080373764038086,0.61,-0.07,0.28,0.67
2.0917696952819824,0.22,-0.04,0.23,0.32
2.1018269062042236,-0.07,0.09,0.3,0.32
2.110384941101074,-0.28,0.05,0.32,0.42
2.11991286277771,-0.32,-0.03,0.25,0.4
2.13038969039917,-0.33,0.01,0.17,0.37
2.141436815261841,-0.14,0.14,0.27,0.33
2.152215003967285,-0.21,-0.03,0.37,0.42
2.159310817718506,-0.21,-0.03,0.31,0.37
2.1697187423706055,-0.56,0.0,-0.46,0.72
2.1796627044677734,-0.67,0.06,-0.72,0.98
2.1917147636413574,-0.74,0.0,0.01,0.74
2.20112681388855,-0.73,0.0,0.12,0.73
2.209615707397461,-0.67,-0.03,-0.02,0.67
2.2191388607025146,-0.68,0.0,-0.04,0.68
2.229231834411621,-0.85,-0.01,0.07,0.85
2.2389888763427734,-0.95,0.03,0.13,0.95
2.2519726753234863,-1.39,0.05,0.15,1.39
2.25925874710083,-1.71,0.04,0.21,1.72
2.2685818672180176,-1.2,-0.02,0.2,1.21
2.2788686752319336,-0.86,0.0,0.08,0.86
2.2886557579040527,-0.51,0.0,0.02,0.51
2.3010659217834473,-0.26,0.06,0.0,0.26
2.3088347911834717,-0.16,0.04,-0.03,0.16
2.318272829055786,-0.13,0.0,-0.09,0.15
2.328617811203003,0.07,0.01,-0.57,0.57
2.3384628295898438,-0.11,0.08,0.13,0.18
2.3513216972351074,0.27,0.09,1.24,1.27
2.360325813293457,0.39,-0.19,-0.97,1.06
2.371168851852417,0.35,0.03,-0.61,0.7
2.3779969215393066,0.22,0.15,0.21,0.33
2.398587703704834,0.1,-0.06,0.55,0.56
2.4017066955566406,0.4,-0.18,0.38,0.58
2.407528877258301,0.4,-0.16,0.15,0.45
2.4177517890930176,0.27,-0.1,0.26,0.38
2.427750825881958,-0.47,1.02,-0.36,1.17
2.4400949478149414,-0.8,-0.64,-0.58,1.17
2.4478707313537598,-0.44,0.25,0.04,0.5
2.4602057933807373,-0.01,-0.04,0.17,0.17
2.471784830093384,0.46,-0.07,-0.18,0.49
2.4774088859558105,0.4,-0.04,-0.1,0.41
2.4912266731262207,0.36,0.08,0.09,0.37
2.4975099563598633,0.17,0.02,0.3,0.34
2.5115208625793457,-0.27,-0.1,-0.27,0.39
2.5198917388916016,-1.09,0.06,0.08,1.09
2.526927947998047,-1.16,0.07,-0.74,1.37
2.536742687225342,-1.35,0.06,-0.09,1.35
2.5495667457580566,-0.09,0.05,0.28,0.29
2.5565500259399414,0.74,0.02,-0.61,0.95
2.5667200088500977,0.8,-0.07,0.15,0.81
2.576735019683838,0.6,-0.01,0.48,0.76
2.589761734008789,0.93,-0.06,0.35,0.99
2.5966408252716064,1.31,0.03,0.56,1.42
2.6084280014038086,1.09,-0.08,0.49,1.19
2.6196978092193604,0.65,-0.1,0.04,0.65
2.6262826919555664,-0.09,-0.07,-0.23,0.25
2.636343002319336,-0.74,0.06,-0.35,0.82
2.6466617584228516,-1.14,0.33,-0.34,1.23
2.658280849456787,-1.46,-0.35,0.04,1.5
2.67128586769104,-1.54,0.18,0.2,1.56
2.6758389472961426,-1.36,0.09,0.15,1.37
2.6976168155670166,-0.69,-0.05,-0.2,0.72
2.699403762817383,-0.31,0.06,-0.38,0.49
2.7084579467773438,-0.09,0.07,-0.3,0.32
2.7177019119262695,-0.09,0.0,0.1,0.13
2.7273778915405273,-0.1,-0.04,0.36,0.37
2.7359538078308105,0.0,-0.01,0.39,0.39
2.74796986579895,0.17,-0.08,0.31,0.36
2.757222890853882,0.27,-0.12,0.05,0.29
2.767282009124756,0.39,0.02,-0.08,0.39
2.775481700897217,0.44,0.32,-0.25,0.59
2.785590887069702,0.14,-0.28,0.09,0.32
2.7982187271118164,0.12,0.21,-0.27,0.36
2.8073229789733887,0.02,-0.1,-0.41,0.42
2.817905902862549,-0.17,0.05,-0.6,0.62
2.8254036903381348,-0.46,-0.04,-0.18,0.49
2.834937810897827,-0.6,0.07,0.8,1.0
2.847461700439453,-0.2,-0.03,0.64,0.67
2.85664701461792,-0.02,0.03,0.64,0.64
2.8683998584747314,-0.01,0.04,0.76,0.76
2.874516010284424,-0.04,0.0,0.38,0.38
2.8845839500427246,-0.19,-0.05,-0.77,0.79
2.894876003265381,0.0,0.04,-0.93,0.93
2.9067139625549316,-0.01,0.14,-0.76,0.77
2.91854190826416,-0.27,0.05,-0.21,0.34
2.9240798950195312,-0.32,0.0,0.32,0.45
2.934237003326416,-0.21,0.01,0.52,0.56
2.947114944458008,-0.01,0.06,0.5,0.5
2.9565110206604004,0.23,0.05,0.38,0.44
2.9660677909851074,0.48,0.01,0.23,0.53
2.9741268157958984,0.77,-0.01,0.02,0.77
2.9839558601379395,0.93,-0.04,-0.17,0.94
2.996112823486328,0.77,-0.09,-0.44,0.89
3.0035998821258545,0.15,-0.06,-0.53,0.55
3.0136919021606445,-0.25,-0.07,-0.19,0.32
3.0236828327178955,-0.47,-0.06,-0.1,0.48
3.035658836364746,-0.55,-0.06,0.57,0.79
3.043276786804199,-0.61,-0.03,0.11,0.62
3.0560197830200195,-0.76,0.02,-0.08,0.76
3.0696067810058594,-0.62,0.04,-0.11,0.63
3.073291778564453,-0.36,0.03,-0.08,0.37
3.083103895187378,-0.11,0.06,0.03,0.12
3.095627784729004,0.02,0.05,0.01,0.05
3.1030406951904297,0.11,0.05,-0.03,0.12
3.1128058433532715,0.08,0.06,0.02,0.1
3.123478889465332,-0.09,0.03,0.03,0.09
3.1352057456970215,-0.44,-0.02,-0.07,0.44
3.1430540084838867,-0.75,-0.03,-0.04,0.75
3.154885768890381,-0.92,-0.02,-0.04,0.92
3.1648528575897217,-0.97,0.01,0.0,0.97
3.172581672668457,-0.77,0.02,0.0,0.77
3.1824569702148438,-0.36,-0.04,0.01,0.36
3.1948018074035645,-0.23,-0.03,0.0,0.23
3.204397678375244,0.84,0.21,-0.1,0.87
3.213974952697754,0.19,0.0,-0.22,0.29
3.2223377227783203,-0.56,-0.13,0.08,0.58
3.2325387001037598,0.19,0.08,-0.06,0.21
3.244814872741699,-0.13,-0.01,0.07,0.14
3.254093885421753,-0.12,-0.01,-0.04,0.12
3.264798879623413,-0.02,-0.02,-0.09,0.09
3.2719058990478516,-0.04,0.02,-0.07,0.08
3.281832695007324,-0.02,0.04,0.02,0.04
3.29424786567688,-0.01,0.02,0.22,0.22
3.301501750946045,-0.09,0.0,0.12,0.15
3.3114798069000244,-0.12,0.0,0.0,0.12
3.321575880050659,-0.05,0.03,0.01,0.05
3.333455801010132,-0.05,0.0,0.05,0.07
3.343233823776245,-0.07,0.0,0.07,0.09
3.353336811065674,-0.08,0.02,0.08,0.11
3.363029956817627,-0.08,0.03,0.06,0.1
3.371062755584717,-0.07,0.01,0.06,0.09
3.381340980529785,-0.06,0.01,0.04,0.07
3.3928756713867188,-0.06,0.0,0.04,0.07
3.403303861618042,-0.07,0.0,0.01,0.07
3.4136948585510254,-0.07,0.02,-0.01,0.07
3.42055082321167,-0.06,0.01,-0.01,0.06
3.43107271194458,-0.07,0.01,-0.03,0.07
3.443300724029541,-0.08,0.01,-0.05,0.09
3.4527196884155273,-0.07,0.01,-0.04,0.08
3.464589834213257,-0.06,0.01,0.0,0.06
3.470362901687622,-0.07,0.0,0.03,0.07
3.480294704437256,-0.07,0.02,0.05,0.08
3.492584705352783,-0.06,0.02,0.05,0.08
3.502114772796631,-0.07,0.0,0.03,0.07
3.5125489234924316,-0.07,0.01,0.0,0.07
3.519709825515747,-0.07,0.0,0.0,0.07
3.529876708984375,-0.07,0.02,-0.01,0.07
3.54195499420166,-0.07,0.0,-0.01,0.07
3.5516278743743896,-0.06,0.0,0.0,0.06
3.5627288818359375,-0.07,0.01,0.01,0.07
3.569356918334961,-0.07,0.01,0.01,0.07
3.57961368560791,-0.07,0.0,0.0,0.07
3.591852903366089,-0.07,0.01,0.0,0.07
3.601327896118164,-0.06,0.02,0.01,0.06
3.614133834838867,-0.07,0.01,0.02,0.07
3.61895489692688,-0.07,0.0,0.02,0.07
3.62919282913208,-0.07,0.0,0.01,0.07
3.6392898559570312,-0.07,0.01,0.01,0.07
3.651381015777588,-0.07,0.02,0.01,0.07
3.6623988151550293,-0.08,0.01,0.02,0.08
3.668813705444336,-0.07,0.01,0.02,0.07
3.678919792175293,-0.07,0.01,0.02,0.07
3.6907918453216553,-0.07,0.01,0.01,0.07
3.701680898666382,-0.07,0.01,0.02,0.07
3.7118396759033203,-0.07,0.01,0.02,0.07
3.718791961669922,-0.07,0.01,0.03,0.07
3.7307119369506836,-0.07,0.01,0.02,0.07
3.738266944885254,-0.07,0.01,0.02,0.07
3.7507379055023193,-0.07,0.01,0.01,0.07
3.762915849685669,-0.08,0.01,0.0,0.08
3.768359899520874,-0.07,0.01,0.0,0.07
3.7802138328552246,-0.07,0.01,0.01,0.07
3.7900547981262207,-0.07,0.01,0.0,0.07
3.800076961517334,-0.07,0.01,0.01,0.07
3.8120028972625732,-0.08,0.01,0.02,0.08
3.817786693572998,-0.07,0.01,0.02,0.07
3.8279078006744385,-0.07,0.01,0.01,0.07
3.838912010192871,-0.07,0.01,0.01,0.07
3.850097894668579,-0.07,0.01,0.02,0.07
3.8626158237457275,-0.07,0.01,0.01,0.07
3.8672378063201904,-0.07,0.01,0.01,0.07
3.8779449462890625,-0.07,0.02,0.02,0.07
3.889955997467041,-0.07,0.0,0.01,0.07
3.8985648155212402,-0.07,0.0,0.01,0.07
3.909317970275879,-0.07,0.01,0.01,0.07
3.9171488285064697,-0.06,0.01,0.02,0.06
3.9275918006896973,-0.07,0.0,0.02,0.07
3.9393796920776367,-0.07,0.0,0.01,0.07
3.948523998260498,-0.07,0.0,0.01,0.07
3.9602508544921875,-0.07,0.0,0.01,0.07
3.9672536849975586,-0.07,0.01,0.02,0.07
3.9767978191375732,-0.06,0.01,0.0,0.06
3.9890856742858887,-0.06,0.01,0.01,0.06
3.998792886734009,-0.06,0.0,0.01,0.06
4.011072874069214,-0.07,0.0,0.01,0.07
4.016201972961426,-0.06,0.01,0.01,0.06
4.02659797668457,-0.07,0.02,0.01,0.07
4.036886692047119,-0.06,0.01,0.02,0.06
4.049162864685059,-0.07,0.01,0.01,0.07
4.061685800552368,-0.07,0.01,0.01,0.07
4.06603479385376,-0.07,0.0,0.01,0.07
4.075953960418701,-0.07,0.0,0.01,0.07
4.088332891464233,-0.07,0.01,0.0,0.07
4.095921993255615,-0.07,0.01,0.01,0.07
4.105803966522217,-0.07,0.0,0.02,0.07
4.115755796432495,-0.07,0.0,0.02,0.07
4.127074718475342,-0.07,0.0,0.02,0.07
4.138402938842773,-0.07,0.01,0.01,0.07
4.145411014556885,-0.07,0.01,0.01,0.07
4.1552958488464355,-0.07,0.01,0.01,0.07
4.167603015899658,-0.07,0.0,0.01,0.07
4.177470684051514,-0.06,0.01,0.01,0.06
4.186891794204712,-0.06,0.01,0.02,0.06
4.195933818817139,-0.07,0.01,0.01,0.07
4.204789876937866,-0.07,0.01,0.01,0.07
4.215488910675049,-0.07,0.0,0.0,0.07
4.227684020996094,-0.07,0.01,0.0,0.07
4.2373058795928955,-0.07,0.01,0.01,0.07
4.24657678604126,-0.06,0.01,0.0,0.06
4.254604816436768,-0.07,0.02,0.0,0.07
4.264804840087891,-0.07,0.01,0.0,0.07
4.277187824249268,-0.07,0.0,0.02,0.07
4.287168979644775,-0.06,0.01,0.01,0.06
4.294802904129028,-0.07,0.0,0.01,0.07
4.304197788238525,-0.07,0.0,0.01,0.07
4.316324710845947,-0.06,0.01,0.01,0.06
4.324085712432861,-0.07,0.01,0.01,0.07
4.33683967590332,-0.06,0.0,0.01,0.06
4.344350814819336,-0.06,0.01,0.02,0.06
4.354099750518799,-0.06,0.0,0.01,0.06
4.364619731903076,-0.07,0.01,0.01,0.07
4.376651763916016,-0.07,0.0,0.02,0.07
4.384357929229736,-0.05,0.01,0.1,0.11
4.395816802978516,-0.05,0.02,0.1,0.11
4.4078028202056885,-0.08,0.01,0.01,0.08
4.413761854171753,-0.09,0.0,0.01,0.09
4.427367687225342,-0.06,0.01,0.05,0.07
4.434260845184326,-0.04,0.01,0.03,0.05
4.445495843887329,-0.08,-0.01,0.01,0.08
4.4554057121276855,-0.07,0.01,0.0,0.07
4.463482856750488,-0.06,0.02,0.01,0.06
4.476018905639648,-0.06,0.01,0.01,0.06
4.485423803329468,-0.07,0.01,0.03,0.07
4.495271682739258,-0.08,0.0,0.06,0.1
4.504997730255127,-0.07,0.01,0.13,0.14
4.513093948364258,-0.06,0.02,0.15,0.16
4.524967670440674,-0.05,0.04,0.09,0.11
4.534953832626343,-0.05,0.01,0.07,0.08
4.545017719268799,-0.08,-0.01,0.02,0.08
4.554973840713501,-0.08,0.0,0.0,0.08
4.5626397132873535,-0.05,0.02,0.06,0.08
4.573933839797974,-0.05,0.02,0.17,0.17
4.584764003753662,-0.04,0.01,0.12,0.12
4.594328880310059,-0.11,0.0,0.02,0.11
4.604575872421265,-0.03,-0.02,-0.3,0.3
4.612354755401611,-0.04,0.03,-0.28,0.28
4.623366832733154,-0.04,0.02,0.07,0.08
4.634239673614502,-0.06,0.0,0.05,0.07
4.643507957458496,-0.09,-0.03,-0.06,0.11
4.652023792266846,-0.09,0.04,-0.13,0.16
4.66206169128418,-0.05,0.03,-0.06,0.08
4.67370080947876,-0.05,-0.01,0.07,0.08
4.682137966156006,-0.07,0.0,0.01,0.07
4.693727016448975,-0.07,0.02,0.0,0.07
4.705385684967041,-0.08,0.02,-0.01,0.08
4.711422920227051,-0.07,0.0,0.04,0.08
4.728515863418579,-0.04,-0.02,0.1,0.1
4.731290817260742,-0.08,0.03,0.06,0.1
4.745792865753174,-0.09,0.01,-0.11,0.14
4.754458904266357,-0.03,-0.01,-0.05,0.05
4.7613348960876465,-0.06,0.04,0.1,0.12
4.776976823806763,-0.05,0.03,0.05,0.07
4.781597852706909,-0.04,-0.01,0.2,0.2
4.796933889389038,-0.05,-0.03,0.06,0.08
4.805974960327148,-0.07,-0.02,-0.08,0.1
4.810804843902588,-0.12,0.01,0.02,0.12
4.8264689445495605,-0.04,0.06,-0.21,0.22
4.831455707550049,-0.07,0.0,0.06,0.09
4.8469789028167725,-0.11,-0.02,0.01,0.11
4.857182025909424,-0.05,0.02,-0.04,0.06
4.860522747039795,-0.06,0.05,-0.01,0.07
4.877242803573608,-0.07,0.0,0.04,0.08
4.880641937255859,-0.03,-0.03,-0.04,0.05
4.896969795227051,-0.08,0.02,-0.01,0.08
4.905916690826416,-0.02,0.04,-0.09,0.1
4.910131931304932,-0.11,-0.04,0.25,0.27
4.926262855529785,-0.09,-0.05,-0.17,0.19
4.930420875549316,-0.07,0.02,0.04,0.08
4.947134017944336,-0.08,0.06,0.03,0.1
4.9567718505859375,-0.07,-0.02,0.02,0.07
4.959678888320923,-0.05,-0.02,0.02,0.05
4.976366996765137,-0.08,0.01,0.09,0.12
4.980372905731201,-0.04,0.02,0.0,0.04
4.995110988616943,-0.04,0.0,0.08,0.08
5.003558874130249,-0.04,0.0,0.1,0.1
5.009315013885498,-0.06,0.0,0.03,0.06
5.019266843795776,-0.05,0.04,-0.02,0.06
5.031746864318848,-0.07,0.05,-0.07,0.11
5.039217948913574,-0.09,0.01,-0.06,0.1
5.049260854721069,-0.1,0.0,-0.02,0.1
5.0593788623809814,-0.08,0.0,0.03,0.08
5.071809768676758,-0.05,0.0,-0.03,0.05
5.081528902053833,-0.06,0.02,0.01,0.06
5.089359760284424,-0.01,-0.01,0.01,0.01
5.09896183013916,-0.07,0.04,0.1,0.12
5.109050750732422,0.01,-0.07,-0.01,0.07
5.1186769008636475,-0.11,-0.02,-0.01,0.11
5.131322860717773,-0.08,0.07,-0.03,0.11
5.140854835510254,-0.05,0.05,-0.03,0.07
5.153410911560059,-0.09,-0.01,0.01,0.09
5.158240795135498,-0.06,-0.01,0.02,0.06
5.16835880279541,-0.07,0.05,-0.05,0.09
5.182234764099121,-0.08,0.04,-0.05,0.1
5.188802719116211,-0.04,-0.02,0.03,0.05
5.198511838912964,-0.06,-0.02,0.11,0.12
5.208261013031006,-0.09,0.01,0.07,0.11
5.218063831329346,-0.07,0.03,0.01,0.07
5.23096489906311,-0.06,0.03,-0.02,0.06
5.237714767456055,-0.06,-0.01,-0.01,0.06
5.247856855392456,-0.06,-0.02,0.0,0.06
5.258358955383301,-0.07,0.03,-0.02,0.07
5.269711971282959,-0.06,0.02,-0.03,0.06
5.277860879898071,-0.04,-0.01,0.05,0.06
5.290040969848633,-0.06,-0.03,0.04,0.07
5.29920768737793,-0.06,0.0,0.05,0.07
5.307297706604004,-0.03,0.01,0.03,0.04
5.317214012145996,-0.06,0.02,-0.01,0.06
5.329493999481201,-0.06,0.01,0.02,0.06
5.338807821273804,-0.06,0.01,0.0,0.06
5.349315881729126,-0.08,0.02,-0.05,0.09
5.357204914093018,-0.1,0.02,-0.06,0.11
5.367486000061035,-0.08,-0.01,0.0,0.08
5.379025936126709,-0.05,-0.01,0.01,0.05
5.389458894729614,-0.06,0.01,0.04,0.07
5.401070833206177,-0.05,0.03,-0.01,0.05
5.406531810760498,-0.02,0.04,-0.03,0.05
5.416538715362549,-0.01,0.0,0.01,0.01
5.4269537925720215,0.01,-0.05,-0.01,0.05
5.43861985206604,0.01,0.0,-0.05,0.05
5.446823835372925,0.02,0.03,-0.09,0.09
5.456352710723877,0.06,0.02,-0.1,0.11
5.466530799865723,0.09,-0.02,-0.1,0.13
5.478355884552002,0.06,0.01,-0.08,0.1
5.488733768463135,0.05,0.03,-0.07,0.09
5.4977707862854,-0.01,0.01,0.01,0.01
5.505953788757324,-0.07,-0.02,0.0,0.07
5.515776872634888,-0.11,0.02,0.03,0.11
5.527688980102539,-0.25,0.03,0.16,0.29
5.5390098094940186,-0.3,0.0,0.19,0.35
5.549592971801758,-0.24,0.03,0.12,0.26
5.559429883956909,-0.06,0.04,-0.04,0.08
5.569835901260376,-0.05,0.02,-0.08,0.09
5.581491947174072,-0.1,0.02,-0.01,0.1
5.589766025543213,-0.05,-0.02,-0.04,0.06
5.599169731140137,-0.02,-0.02,-0.04,0.04
5.609251976013184,-0.07,-0.01,-0.02,0.07
5.6196348667144775,-0.06,0.01,0.02,0.06
5.630967855453491,-0.08,-0.01,0.0,0.08
5.640869855880737,-0.13,0.0,-0.01,0.13
5.65323281288147,-0.15,0.02,0.01,0.15
5.658789873123169,-0.02,0.02,0.03,0.04
5.668747901916504,0.08,0.0,0.03,0.08
5.680874824523926,-0.06,-0.02,0.01,0.06
5.69104790687561,-0.07,0.03,-0.05,0.09
5.702428817749023,-0.04,0.0,0.0,0.04
5.708446025848389,-0.03,-0.02,0.04,0.05
5.718313694000244,-0.06,0.03,0.05,0.08
5.728752851486206,-0.07,0.04,0.02,0.08
5.739904880523682,-0.07,0.0,0.05,0.08
5.753392696380615,-0.07,-0.02,0.04,0.08
5.758213996887207,-0.06,0.01,0.02,0.06
5.768119812011719,-0.05,0.02,-0.01,0.05
5.778401851654053,-0.04,0.01,0.0,0.04
5.789873838424683,-0.02,0.01,0.07,0.07
5.80136775970459,-0.08,0.03,0.07,0.11
5.807598829269409,-0.1,0.01,-0.05,0.11
5.8175787925720215,-0.09,0.01,-0.01,0.09
5.82941198348999,-0.14,0.01,-0.01,0.14
5.8397438526153564,0.01,0.02,-0.13,0.13
5.8504478931427,0.1,0.08,-0.36,0.38
5.857410907745361,-0.02,-0.01,-0.15,0.15
5.867431879043579,-0.1,-0.05,0.12,0.16
5.877813816070557,-0.14,0.03,0.29,0.32
5.887682914733887,-0.07,0.02,0.19,0.2
5.897076845169067,-0.05,-0.02,0.06,0.08
5.907357692718506,-0.05,0.0,0.05,0.07
5.917542934417725,-0.02,0.03,0.07,0.07
5.929415702819824,-0.1,0.01,0.08,0.12
5.936908721923828,-0.07,0.0,0.01,0.07
5.947046756744385,-0.02,0.02,-0.08,0.08
5.957411766052246,-0.05,0.02,-0.05,0.07
5.969247817993164,-0.08,0.0,-0.01,0.08
5.9765918254852295,-0.07,-0.02,0.04,0.08
5.989344835281372,-0.06,0.0,0.04,0.07
6.0014729499816895,-0.06,0.02,-0.01,0.06
6.006310939788818,-0.07,0.03,-0.01,0.07
6.016345024108887,-0.06,0.01,0.01,0.06
6.026700019836426,-0.06,0.0,0.02,0.06
6.038754940032959,-0.06,0.0,0.01,0.06
6.047714710235596,-0.06,0.01,0.01,0.06
6.055944919586182,-0.07,0.01,0.01,0.07
6.06614875793457,-0.05,0.01,0.0,0.05
6.078549861907959,-0.06,0.01,-0.01,0.06
6.08604097366333,-0.07,0.02,-0.01,0.07
6.095923900604248,-0.07,0.02,-0.01,0.07
6.105906963348389,-0.06,0.01,-0.03,0.06
6.115858793258667,-0.04,-0.01,-0.03,0.05
6.125820875167847,-0.05,0.0,-0.02,0.05
6.138960838317871,-0.07,0.01,-0.01,0.07
6.14838981628418,-0.06,0.01,-0.01,0.06
6.15552282333374,-0.04,0.01,-0.01,0.04
6.165364742279053,-0.07,0.01,0.01,0.07
6.177337884902954,-0.07,0.01,0.02,0.07
6.187081813812256,-0.06,0.0,0.02,0.06
6.19770884513855,-0.07,0.01,0.02,0.07
6.205129861831665,-0.05,0.01,0.03,0.05
6.215312957763672,-0.06,0.01,0.04,0.07
6.2265918254852295,-0.06,0.01,0.04,0.07
6.236149787902832,-0.06,0.01,0.04,0.07
6.249886989593506,-0.06,0.01,0.04,0.07
6.2550208568573,-0.06,0.02,0.02,0.06
6.265135765075684,-0.03,0.01,0.01,0.03
6.277235984802246,-0.05,0.01,-0.01,0.05
6.286618709564209,-0.07,0.0,-0.02,0.07
6.2972869873046875,-0.07,0.0,0.02,0.07
6.304397821426392,-0.08,0.0,0.06,0.1
6.3148016929626465,-0.05,0.04,0.07,0.09
6.326932907104492,-0.06,0.0,0.0,0.06
6.334012985229492,-0.05,0.0,-0.04,0.06
6.344394683837891,-0.07,0.01,-0.03,0.07
6.354343891143799,-0.06,0.01,-0.01,0.06
6.36643385887146,-0.08,0.01,0.01,0.08
6.375778675079346,-0.06,0.01,0.01,0.06
6.385531902313232,-0.05,0.01,0.0,0.05
6.3954339027404785,-0.06,0.02,0.0,0.06
6.4037299156188965,-0.07,0.0,0.01,0.07
6.413987874984741,-0.05,0.0,0.02,0.05
6.4260149002075195,-0.06,0.01,0.03,0.06
6.435091018676758,-0.06,0.02,0.03,0.06
6.4456377029418945,-0.05,0.02,0.02,0.05
6.453301906585693,-0.04,0.0,-0.01,0.04
6.463521957397461,-0.08,0.0,-0.01,0.08
6.476172924041748,-0.05,0.01,-0.01,0.05
6.483912944793701,-0.05,0.01,-0.01,0.05
6.494158744812012,-0.06,0.01,0.01,0.06
6.50281286239624,-0.06,0.01,0.03,0.06
6.513107776641846,-0.06,0.0,0.03,0.06
6.52467679977417,-0.06,0.01,0.02,0.06
6.533710956573486,-0.06,0.01,0.02,0.06
6.546663761138916,-0.05,0.01,0.0,0.05
6.5524818897247314,-0.06,0.0,0.0,0.06
6.5624799728393555,-0.07,0.0,-0.01,0.07
6.57512092590332,-0.06,0.0,0.0,0.06
6.583926677703857,-0.06,0.01,0.01,0.06
6.59651780128479,-0.05,0.01,0.02,0.05
6.602130889892578,-0.05,0.02,0.01,0.05
6.612497806549072,-0.05,0.0,-0.03,0.05
6.624001979827881,-0.04,0.0,-0.05,0.06
6.6340227127075195,-0.06,0.02,-0.02,0.06
6.646605014801025,-0.06,0.01,0.06,0.08
6.65192985534668,-0.08,-0.01,0.19,0.2
6.661935806274414,-0.07,0.02,0.22,0.23
6.6742777824401855,-0.04,0.02,0.08,0.09
6.683502674102783,-0.05,0.01,-0.02,0.05
6.6970179080963135,-0.05,0.02,-0.12,0.13
6.7013468742370605,-0.06,0.01,-0.12,0.13
6.711524963378906,-0.06,0.0,-0.09,0.1
6.7217607498168945,-0.05,0.0,-0.04,0.06
6.733577728271484,-0.05,0.0,0.0,0.05
6.744339942932129,-0.06,0.0,0.01,0.06
6.7509989738464355,-0.06,0.02,-0.02,0.06
6.7608208656311035,-0.06,0.0,-0.04,0.07
6.773583889007568,-0.05,0.01,-0.04,0.06
6.782516002655029,-0.06,0.01,0.0,0.06
6.793699741363525,-0.05,0.01,0.04,0.06
6.800459861755371,-0.05,0.0,0.04,0.06
6.812907695770264,-0.05,0.0,0.02,0.05
6.822665691375732,-0.06,0.01,0.01,0.06
6.832729816436768,-0.03,0.01,-0.01,0.03
6.843750953674316,-0.07,0.0,-0.02,0.07
6.850589752197266,-0.05,0.02,-0.01,0.05
6.860154867172241,-0.05,0.02,0.01,0.05
6.872511863708496,-0.05,0.0,0.01,0.05
6.882226943969727,-0.06,0.0,0.02,0.06
6.89429783821106,-0.05,0.01,0.04,0.06
6.899852752685547,-0.05,0.01,0.03,0.05
6.909940719604492,-0.05,0.01,0.03,0.05
6.92105770111084,-0.05,0.01,0.03,0.05
6.931591987609863,-0.05,0.01,0.02,0.05
6.943482875823975,-0.05,0.02,0.01,0.05
6.949859857559204,-0.06,0.01,-0.01,0.06
6.959451675415039,-0.06,0.0,-0.01,0.06
6.972052812576294,-0.06,0.01,0.0,0.06
6.981581687927246,-0.05,0.01,0.02,0.05
6.9925408363342285,-0.06,0.01,0.03,0.06
6.999261856079102,-0.06,0.01,0.04,0.07
7.009270906448364,-0.05,0.0,0.04,0.06
7.021154880523682,-0.05,0.02,0.04,0.06
7.0312819480896,-0.05,0.01,0.01,0.05
7.042529821395874,-0.05,0.01,-0.02,0.05
7.04893684387207,-0.05,0.01,-0.03,0.05
7.058981895446777,-0.05,0.01,-0.02,0.05
7.069192886352539,-0.05,0.01,-0.01,0.05
7.0810699462890625,-0.05,0.01,0.0,0.05
7.092301845550537,-0.06,0.01,0.03,0.06
7.098453998565674,-0.05,0.01,0.04,0.06
7.108477830886841,-0.05,0.01,0.02,0.05
7.120376825332642,-0.05,0.01,0.02,0.05
7.130321025848389,-0.05,0.01,0.01,0.05
7.143391847610474,-0.05,0.01,0.01,0.05
7.148643970489502,-0.06,0.0,-0.01,0.06
7.158540725708008,-0.05,0.01,-0.01,0.05
7.1711649894714355,-0.06,0.01,-0.01,0.06
7.177875995635986,-0.06,0.01,0.01,0.06
7.188313961029053,-0.05,0.01,0.01,0.05
7.198588848114014,-0.05,0.0,0.02,0.05
7.210320949554443,-0.05,0.01,0.02,0.05
7.218987941741943,-0.05,0.01,0.02,0.05
7.229547023773193,-0.06,0.01,0.02,0.06
7.242719888687134,-0.05,0.0,0.01,0.05
7.247471809387207,-0.05,0.01,-0.01,0.05
7.257685899734497,-0.04,0.01,-0.01,0.04
7.270133972167969,-0.05,0.01,0.0,0.05
7.277326822280884,-0.05,0.01,-0.01,0.05
7.287455797195435,-0.05,0.01,0.01,0.05
7.297520875930786,-0.06,0.02,0.01,0.06
7.30954384803772,-0.06,0.01,0.01,0.06
7.319687843322754,-0.05,0.0,0.02,0.05
7.328478813171387,-0.05,0.0,0.03,0.05
7.337274789810181,-0.05,0.01,0.01,0.05
7.3469319343566895,-0.05,0.01,0.01,0.05
7.357564926147461,-0.06,0.02,0.0,0.06
7.369868755340576,-0.05,0.01,0.0,0.05
7.377415895462036,-0.05,0.01,0.0,0.05
7.387197971343994,-0.05,0.02,0.0,0.05
7.3966028690338135,-0.05,0.01,0.0,0.05
7.4088969230651855,-0.05,0.01,0.01,0.05
7.417832851409912,-0.05,0.01,0.01,0.05
7.4280009269714355,-0.05,0.01,0.02,0.05
7.440183877944946,-0.05,0.01,0.01,0.05
7.446116924285889,-0.05,0.02,0.01,0.05
7.456477880477905,-0.06,0.01,0.01,0.06
7.468695878982544,-0.05,0.01,0.0,0.05
7.4772467613220215,-0.05,0.01,0.0,0.05
7.487548828125,-0.06,0.01,0.0,0.06
7.495638847351074,-0.05,0.01,0.0,0.05
7.5063557624816895,-0.05,0.01,0.01,0.05
7.51784086227417,-0.05,0.01,0.0,0.05
7.526644706726074,-0.05,0.01,0.0,0.05
7.539140701293945,-0.05,0.01,0.02,0.05
7.545701026916504,-0.05,0.0,0.01,0.05
7.5555739402771,-0.05,0.0,0.01,0.05
7.567860841751099,-0.05,0.01,0.0,0.05
7.576430797576904,-0.05,0.01,0.0,0.05
7.587226867675781,-0.05,0.0,0.0,0.05
7.595027923583984,-0.05,0.0,0.01,0.05
7.605661869049072,-0.05,0.01,0.0,0.05
7.617403984069824,-0.05,0.0,0.01,0.05
7.626595973968506,-0.05,0.01,0.01,0.05
7.639859676361084,-0.04,0.0,0.02,0.04
7.645017862319946,-0.05,0.01,0.01,0.05
7.659392833709717,-0.05,0.02,0.01,0.05
7.665104866027832,-0.05,0.01,0.01,0.05
7.678203821182251,-0.05,0.01,0.01,0.05
7.694687843322754,-0.05,0.01,0.01,0.05
7.695406913757324,-0.05,0.01,0.01,0.05
7.705106735229492,-0.06,0.02,0.0,0.06
7.717648983001709,-0.05,0.0,0.01,0.05
7.72435998916626,-0.05,0.01,0.02,0.05
7.734023809432983,-0.05,0.0,0.01,0.05
7.744381904602051,-0.05,0.01,0.01,0.05
7.756235837936401,-0.05,0.01,0.02,0.05
7.766195774078369,-0.05,0.01,0.0,0.05
7.774813890457153,-0.05,0.01,0.0,0.05
7.784409999847412,-0.05,0.01,0.0,0.05
7.793851852416992,-0.05,0.01,0.01,0.05
7.804895877838135,-0.05,0.01,0.01,0.05
7.815201759338379,-0.05,0.01,0.01,0.05
7.825613975524902,-0.05,0.01,0.02,0.05
7.842756748199463,-0.05,0.0,0.01,0.05
7.844128847122192,-0.04,0.01,0.01,0.04
7.853407859802246,-0.05,0.0,0.01,0.05
7.863815784454346,-0.06,0.01,0.01,0.06
7.874854803085327,-0.06,0.01,0.01,0.06
7.888440847396851,-0.05,0.01,0.01,0.05
7.892998695373535,-0.05,0.01,0.01,0.05
7.903350830078125,-0.05,0.01,0.02,0.05
7.915456771850586,-0.04,0.01,0.02,0.04
7.923102855682373,-0.04,0.02,0.01,0.04
7.932953834533691,-0.05,0.01,0.01,0.05
7.942789793014526,-0.05,0.0,0.01,0.05
7.954233884811401,-0.05,0.0,0.01,0.05
7.9636359214782715,-0.05,0.0,0.01,0.05
7.97439980506897,-0.05,0.02,0.01,0.05
7.987549781799316,-0.05,0.01,0.0,0.05
7.992403984069824,-0.05,0.02,0.01,0.05
8.010769844055176,-0.05,0.01,0.01,0.05
8.015586853027344,-0.04,0.01,0.02,0.04
8.022425889968872,-0.05,0.01,0.01,0.05
8.031946897506714,-0.04,0.01,0.01,0.04
8.043441772460938,-0.05,0.01,0.01,0.05
8.05397367477417,-0.04,0.01,0.0,0.04
8.062408924102783,-0.05,0.0,0.01,0.05
8.071435928344727,-0.05,0.0,0.01,0.05
8.082146883010864,-0.05,0.01,0.02,0.05
8.092171907424927,-0.05,0.01,0.02,0.05
8.104115962982178,-0.04,0.0,0.01,0.04
8.113107681274414,-0.05,0.01,0.01,0.05
8.12169599533081,-0.05,0.01,0.0,0.05
8.131045818328857,-0.05,0.01,0.0,0.05
8.142916679382324,-0.05,0.0,0.01,0.05
8.15242886543274,-0.05,0.01,0.01,0.05
8.161994934082031,-0.05,0.01,0.01,0.05
8.172784805297852,-0.06,0.0,0.01,0.06
8.187932968139648,-0.06,0.01,0.01,0.06
8.19085693359375,-0.05,0.0,0.01,0.05
8.210519790649414,-0.05,0.0,0.01,0.05
8.213084697723389,-0.05,0.0,0.01,0.05
8.223209857940674,-0.05,0.0,0.0,0.05
8.234976768493652,-0.05,0.01,0.01,0.05
8.240415811538696,-0.05,0.01,0.02,0.05
8.252826690673828,-0.05,0.0,0.02,0.05
8.262338876724243,-0.05,0.01,0.01,0.05
8.273099899291992,-0.04,0.02,-0.01,0.04
8.286006927490234,-0.05,0.01,0.0,0.05
8.290271759033203,-0.05,0.01,0.01,0.05
8.300407886505127,-0.04,0.0,0.02,0.04
8.310425758361816,-0.05,0.01,0.01,0.05
8.322417736053467,-0.05,0.01,0.02,0.05
8.335573673248291,-0.05,0.01,0.01,0.05
8.339784860610962,-0.05,0.01,0.01,0.05
8.349981784820557,-0.05,0.0,0.01,0.05
8.361925840377808,-0.05,0.01,0.01,0.05
8.371450901031494,-0.05,0.01,0.01,0.05
8.381833791732788,-0.05,0.01,0.01,0.05
8.389944791793823,-0.05,0.0,0.01,0.05
8.399885892868042,-0.05,0.01,0.01,0.05
8.410863876342773,-0.05,0.01,0.01,0.05
8.421417713165283,-0.05,0.0,0.01,0.05
8.433693885803223,-0.05,0.01,0.02,0.05
8.439198970794678,-0.05,0.01,0.01,0.05
8.449286937713623,-0.05,0.01,0.01,0.05
8.461347818374634,-0.05,0.01,0.0,0.05
8.472188949584961,-0.04,-0.01,0.0,0.04
8.485249996185303,-0.05,0.0,0.0,0.05
8.488630771636963,-0.04,0.03,0.0,0.05
8.498645782470703,-0.05,0.01,0.0,0.05
8.511303901672363,-0.06,-0.01,0.01,0.06
8.521333694458008,-0.05,0.0,0.02,0.05
8.529945850372314,-0.04,0.01,0.01,0.04
8.538853883743286,-0.06,0.02,0.0,0.06
8.548679828643799,-0.05,0.01,0.01,0.05
8.558698892593384,-0.04,0.0,0.0,0.04
8.57144284248352,-0.05,0.01,0.02,0.05
8.580513954162598,-0.04,0.02,0.02,0.04
8.588368892669678,-0.04,0.01,0.01,0.04
8.598049879074097,-0.05,0.0,0.01,0.05
8.610176801681519,-0.05,0.02,0.01,0.05
8.619841814041138,-0.05,0.02,0.0,0.05
8.630189895629883,-0.05,0.01,0.01,0.05
8.63814401626587,-0.04,0.01,0.0,0.04
8.648141860961914,-0.03,0.01,0.0,0.03
8.660443782806396,-0.05,0.01,0.0,0.05
8.669610977172852,-0.04,0.01,0.02,0.04
8.680247783660889,-0.05,0.01,0.02,0.05
8.687572956085205,-0.05,0.01,0.0,0.05
8.697632789611816,-0.05,0.01,0.0,0.05
8.709827899932861,-0.05,0.0,0.0,0.05
8.719151020050049,-0.05,0.01,0.0,0.05
8.73178768157959,-0.05,0.01,0.01,0.05
8.737040996551514,-0.05,0.01,0.01,0.05
8.747622966766357,-0.04,0.01,0.0,0.04
8.760021686553955,-0.05,0.0,0.01,0.05
8.768904685974121,-0.05,0.01,0.0,0.05
8.779727935791016,-0.04,0.01,0.01,0.04
8.786756992340088,-0.05,0.01,0.01,0.05
8.797143936157227,-0.05,0.02,0.01,0.05
8.809302806854248,-0.05,0.01,0.0,0.05
8.81717300415039,-0.04,0.0,0.01,0.04
8.826694965362549,-0.04,0.01,0.01,0.04
8.836606979370117,-0.04,0.01,0.01,0.04
8.846760749816895,-0.05,0.01,0.01,0.05
8.859413862228394,-0.05,0.02,0.01,0.05
8.86833381652832,-0.05,0.01,0.01,0.05
8.87867283821106,-0.06,0.0,0.01,0.06
8.886242866516113,-0.04,0.0,0.01,0.04
8.896592855453491,-0.05,0.01,0.0,0.05
8.908596992492676,-0.05,0.02,0.0,0.05
8.91809892654419,-0.04,0.01,0.0,0.04
8.932069778442383,-0.05,0.01,0.0,0.05
8.935464859008789,-0.05,0.01,0.01,0.05
8.945721864700317,-0.05,0.01,0.01,0.05
8.95816683769226,-0.05,0.0,0.01,0.05
8.96664571762085,-0.05,0.0,0.01,0.05
8.978050708770752,-0.04,0.02,0.01,0.04
8.981140851974487,-0.04,0.02,0.01,0.04
8.991628885269165,-0.05,0.01,0.01,0.05
9.00295877456665,-0.05,0.01,0.01,0.05
9.0115966796875,-0.04,0.01,0.01,0.04
9.022035837173462,-0.04,0.0,0.01,0.04
9.03145694732666,-0.05,0.01,0.02,0.05
9.043356895446777,-0.05,0.01,0.0,0.05
9.051089763641357,-0.05,0.0,0.01,0.05
9.064661026000977,-0.04,0.01,0.0,0.04
9.076198816299438,-0.05,0.01,0.01,0.05
9.080668926239014,-0.05,0.01,0.02,0.05
9.092314720153809,-0.05,0.01,0.02,0.05
9.100948810577393,-0.05,0.01,0.0,0.05
9.114203929901123,-0.04,0.0,0.01,0.04
9.127738952636719,-0.04,0.0,0.01,0.04
9.130415916442871,-0.05,0.02,0.01,0.05
9.140533924102783,-0.05,0.02,0.01,0.05
9.152865886688232,-0.04,0.0,0.0,0.04
9.159919738769531,-0.04,0.0,0.0,0.04
9.17013692855835,-0.04,0.01,0.01,0.04
9.18026876449585,-0.05,0.02,0.02,0.05
9.192758798599243,-0.05,0.0,0.01,0.05
9.200254917144775,-0.04,0.0,0.0,0.04
9.212554931640625,-0.05,0.02,0.01,0.05
9.22329568862915,-0.05,0.02,0.01,0.05
9.229817867279053,-0.05,0.0,0.01,0.05
9.240047931671143,-0.04,0.0,0.0,0.04
9.251722812652588,-0.04,0.01,0.0,0.04
9.259724855422974,-0.04,0.0,0.01,0.04
9.269530773162842,-0.05,0.02,0.02,0.05
9.279797792434692,-0.05,0.01,0.02,0.05
9.291999816894531,-0.05,0.01,0.01,0.05
9.302315711975098,-0.05,0.0,0.02,0.05
9.31107783317566,-0.05,0.01,0.01,0.05
9.319283962249756,-0.05,0.02,0.01,0.05
9.328919887542725,-0.05,0.01,0.0,0.05
9.340608835220337,-0.05,0.01,0.01,0.05
9.3508620262146,-0.04,0.01,0.0,0.04
9.358762741088867,-0.04,0.01,0.0,0.04
9.368790864944458,-0.04,0.0,0.01,0.04
9.37906289100647,-0.05,0.0,0.01,0.05
9.391008853912354,-0.05,0.01,0.01,0.05
9.40036392211914,-0.04,0.01,0.0,0.04
9.409372806549072,-0.04,0.01,0.0,0.04
9.420751810073853,-0.05,0.0,0.01,0.05
9.428321838378906,-0.05,0.01,0.01,0.05
9.438318729400635,-0.05,-0.01,0.01,0.05
9.450192928314209,-0.05,0.01,0.01,0.05
9.460095882415771,-0.04,0.01,0.01,0.04
9.471851825714111,-0.05,0.01,0.01,0.05
9.477819919586182,-0.05,0.01,0.01,0.05
9.487864017486572,-0.05,0.01,0.01,0.05
9.499955892562866,-0.05,0.01,0.0,0.05
9.509339809417725,-0.05,0.01,0.01,0.05
9.520884990692139,-0.05,0.0,0.01,0.05
9.527331829071045,-0.05,0.01,0.01,0.05
9.537875890731812,-0.05,0.02,0.0,0.05
9.549872875213623,-0.04,0.01,0.0,0.04
9.557693004608154,-0.04,0.01,0.01,0.04
9.56731367111206,-0.04,0.01,0.01,0.04
9.57773494720459,-0.04,0.01,0.02,0.04
9.589677810668945,-0.04,0.0,0.02,0.04
9.59941291809082,-0.05,0.01,0.02,0.05
9.60903787612915,-0.04,0.01,0.01,0.04
9.620327949523926,-0.05,0.01,0.0,0.05
9.62700891494751,-0.05,0.02,0.0,0.05
9.63742971420288,-0.05,0.01,0.01,0.05
9.648966789245605,-0.05,0.0,0.01,0.05
9.658089876174927,-0.05,0.0,0.01,0.05
9.671002864837646,-0.04,0.01,0.01,0.04
9.676539897918701,-0.04,0.02,0.01,0.04
9.686639785766602,-0.05,0.01,0.01,0.05
9.69855284690857,-0.05,0.01,0.0,0.05
9.708757877349854,-0.04,0.01,0.01,0.04
9.719069957733154,-0.04,0.0,0.02,0.04
9.726401805877686,-0.04,0.01,0.01,0.04
9.736355781555176,-0.05,0.01,0.01,0.05
9.747601985931396,-0.05,0.01,0.01,0.05
9.75848388671875,-0.04,0.01,0.01,0.04
9.77226185798645,-0.04,0.01,0.01,0.04
9.775805950164795,-0.05,0.01,0.01,0.05
9.78577184677124,-0.05,0.01,0.0,0.05
9.797961711883545,-0.05,0.0,0.0,0.05
9.807816982269287,-0.04,0.01,0.0,0.04
9.820315837860107,-0.04,0.01,0.0,0.04
9.825732707977295,-0.04,0.0,0.01,0.04
9.837669849395752,-0.04,0.01,0.01,0.04
9.8473539352417,-0.05,0.01,0.02,0.05
9.857794761657715,-0.05,0.0,0.01,0.05
9.869400978088379,-0.05,0.01,0.01,0.05
9.875333786010742,-0.05,0.02,0.01,0.05
9.88551378250122,-0.04,0.01,0.0,0.04
9.897920846939087,-0.05,0.01,0.01,0.05
9.904971837997437,-0.05,0.02,0.0,0.05
9.915019989013672,-0.04,0.01,0.0,0.04
9.925317764282227,-0.04,0.01,0.01,0.04
9.93837594985962,-0.04,0.0,0.0,0.04
9.945040702819824,-0.05,0.0,0.01,0.05
9.957297801971436,-0.04,0.01,0.01,0.04
9.968469858169556,-0.04,0.01,0.01,0.04
9.97469186782837,-0.05,0.01,0.0,0.05
9.984457015991211,-0.05,0.01,-0.01,0.05
9.996835708618164,-0.04,0.01,0.0,0.04
10.004729747772217,-0.05,0.01,0.01,0.05
10.014484882354736,-0.05,0.01,0.02,0.05
10.02446174621582,-0.05,0.01,0.01,0.05
10.034461975097656,-0.05,0.01,0.0,0.05
10.045697689056396,-0.05,0.02,0.0,0.05
10.055310726165771,-0.05,0.02,0.0,0.05
10.067367792129517,-0.05,0.01,-0.01,0.05
10.073854923248291,-0.04,0.0,0.0,0.04
10.083771705627441,-0.04,-0.01,0.0,0.04
10.095839977264404,-0.04,0.01,0.0,0.04
10.105852842330933,-0.04,0.02,0.01,0.04
10.117502689361572,-0.04,0.02,0.01,0.04
10.12391471862793,-0.04,0.01,0.0,0.04
10.134994983673096,-0.04,0.01,0.0,0.04
10.145607948303223,-0.04,0.0,0.01,0.04
10.155845880508423,-0.05,-0.01,0.01,0.05
10.1685209274292,-0.04,0.0,0.01,0.04
10.173435688018799,-0.05,0.02,0.01,0.05
10.182909965515137,-0.05,0.02,0.01,0.05
10.195907831192017,-0.04,0.02,0.0,0.04
10.203192710876465,-0.04,0.01,0.01,0.04
10.213222026824951,-0.04,0.0,0.02,0.04
10.222970962524414,-0.04,0.0,0.02,0.04
10.233362674713135,-0.05,0.01,0.02,0.05
10.243221759796143,-0.04,0.01,0.0,0.04
10.25513482093811,-0.05,0.01,0.0,0.05
10.26687479019165,-0.05,0.01,0.01,0.05
10.272824764251709,-0.04,0.0,0.01,0.04
10.284403800964355,-0.05,0.01,0.0,0.05
10.292415857315063,-0.04,0.0,0.01,0.04
10.302536964416504,-0.04,0.0,0.02,0.04
10.312591791152954,-0.03,0.01,0.01,0.03
10.3224618434906,-0.04,0.01,0.0,0.04
10.33244800567627,-0.05,0.01,0.01,0.05
10.34394884109497,-0.05,0.01,0.0,0.05
10.35337781906128,-0.05,0.01,0.0,0.05
10.365351676940918,-0.05,0.01,0.0,0.05
10.371973991394043,-0.05,0.0,0.0,0.05
10.381929874420166,-0.05,0.01,0.01,0.05
10.39405083656311,-0.04,0.01,0.01,0.04
10.404191017150879,-0.05,0.0,0.01,0.05
10.41799783706665,-0.04,0.01,0.01,0.04
10.421295881271362,-0.04,0.01,0.01,0.04
10.431187868118286,-0.04,0.01,-0.01,0.04
10.443545818328857,-0.05,0.01,-0.01,0.05
10.453404903411865,-0.04,0.0,0.0,0.04
10.46544075012207,-0.04,0.01,0.0,0.04
10.47114372253418,-0.05,0.02,0.0,0.05
10.48121690750122,-0.04,0.01,0.01,0.04
10.493629932403564,-0.03,0.0,0.0,0.03
10.500926971435547,-0.04,0.01,0.0,0.04
10.510586738586426,-0.04,0.02,0.01,0.04
10.520794868469238,-0.04,0.01,0.0,0.04
10.531876802444458,-0.04,0.01,0.0,0.04
10.542045831680298,-0.04,0.01,-0.01,0.04
10.552213907241821,-0.04,0.01,0.0,0.04
10.56378984451294,-0.04,0.01,0.01,0.04
10.570307731628418,-0.04,0.01,0.02,0.04
10.582207679748535,-0.04,0.0,0.01,0.04
10.591725826263428,-0.04,0.01,0.01,0.04
10.601905822753906,-0.04,0.01,0.0,0.04
10.613667011260986,-0.04,0.0,0.0,0.04
10.620096683502197,-0.04,0.01,0.01,0.04
10.63220500946045,-0.04,0.02,0.0,0.04
10.641665935516357,-0.04,0.01,-0.01,0.04
10.651715755462646,-0.04,0.0,0.01,0.04
10.662897825241089,-0.04,0.0,0.01,0.04
10.669839859008789,-0.04,0.0,0.0,0.04
10.680953025817871,-0.04,0.0,0.0,0.04
10.691860675811768,-0.04,0.01,0.01,0.04
10.701193809509277,-0.02,0.01,0.01,0.02
10.713400840759277,-0.04,0.01,0.0,0.04
10.719334840774536,-0.05,0.01,0.0,0.05
10.729302883148193,-0.05,0.01,0.0,0.05
10.742133855819702,-0.04,0.0,0.01,0.04
10.749989986419678,-0.04,0.01,0.01,0.04
10.759306907653809,-0.05,0.0,0.0,0.05
10.768955707550049,-0.04,0.01,0.01,0.04
10.778625965118408,-0.04,0.01,0.0,0.04
10.790060997009277,-0.04,0.0,0.0,0.04
10.800550937652588,-0.04,0.01,0.01,0.04
10.811933994293213,-0.04,0.02,0.01,0.04
10.818341732025146,-0.03,0.01,0.01,0.03
10.828324794769287,-0.04,0.0,-0.01,0.04
10.840293884277344,-0.04,0.01,0.0,0.04
10.850759983062744,-0.04,0.0,-0.01,0.04
10.861881732940674,-0.04,0.0,-0.01,0.04
10.867946863174438,-0.04,0.0,0.01,0.04
10.879246711730957,-0.04,0.01,0.01,0.04
10.88947582244873,-0.04,0.01,0.01,0.04
10.899682998657227,-0.05,0.02,0.02,0.05
10.914064884185791,-0.04,0.01,0.02,0.04
10.91770887374878,-0.04,0.01,0.01,0.04
10.929243803024292,-0.04,0.01,0.01,0.04
10.939854860305786,-0.04,0.01,0.0,0.04
10.949144840240479,-0.04,0.0,0.0,0.04
10.95941686630249,-0.04,0.0,0.0,0.04
10.967352867126465,-0.04,0.0,0.0,0.04
10.979883670806885,-0.04,0.01,0.02,0.04
10.989017963409424,-0.05,0.01,0.01,0.05
10.999127864837646,-0.04,0.01,0.01,0.04
11.01043176651001,-0.04,0.01,0.0,0.04
11.019394874572754,-0.04,0.01,-0.01,0.04
11.028215885162354,-0.04,0.0,0.01,0.04
11.039095878601074,-0.04,0.01,0.0,0.04
11.048581838607788,-0.04,0.01,-0.01,0.04
11.057145833969116,-0.04,0.01,0.01,0.04
11.068120002746582,-0.04,0.01,0.01,0.04
11.078200817108154,-0.04,0.01,0.01,0.04
11.08824872970581,-0.04,0.01,0.01,0.04
11.098207950592041,-0.04,0.01,0.01,0.04
11.114646911621094,-0.04,0.01,0.01,0.04
11.116532802581787,-0.04,0.0,0.0,0.04
11.12664270401001,-0.04,0.0,0.0,0.04
11.137486934661865,-0.04,0.0,0.0,0.04
11.148430824279785,-0.05,0.01,0.01,0.05
11.161512851715088,-0.04,0.01,0.01,0.04
11.166477680206299,-0.04,0.02,0.02,0.04
11.1765878200531,-0.03,0.01,0.0,0.03
11.188402891159058,-0.04,0.01,0.02,0.04
11.197836875915527,-0.04,0.0,0.01,0.04
11.208210945129395,-0.04,0.0,0.01,0.04
11.21579885482788,-0.04,0.01,0.01,0.04
11.226012706756592,-0.04,0.01,-0.01,0.04
11.23711085319519,-0.04,0.01,-0.01,0.04
11.246707916259766,-0.04,0.01,-0.01,0.04
11.258504867553711,-0.04,0.0,0.0,0.04
11.265487670898438,-0.04,0.0,0.01,0.04
11.275901794433594,-0.03,0.01,0.02,0.03
11.288198947906494,-0.04,0.01,0.01,0.04
11.296178817749023,-0.04,0.01,0.01,0.04
11.308970928192139,-0.03,0.01,0.0,0.03
11.31521987915039,-0.04,0.01,0.0,0.04
11.325016975402832,-0.04,0.01,-0.01,0.04
11.33694076538086,-0.04,0.01,0.0,0.04
11.3464937210083,-0.04,0.0,0.0,0.04
11.35703992843628,-0.03,0.01,0.0,0.03
11.364577770233154,-0.04,0.01,0.0,0.04
11.375365734100342,-0.03,0.0,0.0,0.03
11.387094974517822,-0.04,0.0,0.0,0.04
11.396860837936401,-0.04,0.01,0.01,0.04
11.409541845321655,-0.04,0.01,0.01,0.04
11.41446590423584,-0.04,0.0,0.0,0.04
11.42437481880188,-0.04,0.0,0.01,0.04
11.43677282333374,-0.04,0.0,0.0,0.04
11.444252014160156,-0.04,0.0,0.0,0.04
11.454204797744751,-0.04,0.01,0.0,0.04
11.464098930358887,-0.04,0.01,0.0,0.04
11.47502589225769,-0.04,0.01,0.0,0.04
11.486328840255737,-0.04,0.0,0.0,0.04
11.495311737060547,-0.04,0.0,0.0,0.04
11.507414817810059,-0.04,0.02,0.01,0.04
11.51400089263916,-0.04,0.02,0.0,0.04
11.526175022125244,-0.03,0.01,0.0,0.03
11.536102771759033,-0.04,0.0,-0.01,0.04
11.54384994506836,-0.03,0.0,0.0,0.03
11.553128719329834,-0.03,0.0,0.0,0.03
11.563799858093262,-0.04,0.02,0.01,0.04
11.576029777526855,-0.05,0.01,0.01,0.05
11.5849928855896,-0.04,0.01,0.0,0.04
11.593292713165283,-0.04,0.0,0.01,0.04
11.60303282737732,-0.03,0.01,0.01,0.03
11.61311388015747,-0.04,0.01,0.0,0.04
11.623042821884155,-0.05,0.01,0.0,0.05
11.634702682495117,-0.05,0.0,0.0,0.05
11.644716739654541,-0.04,0.0,0.0,0.04
11.656912803649902,-0.05,0.01,0.0,0.05
11.662588834762573,-0.04,0.01,0.0,0.04
11.67296290397644,-0.03,0.01,0.02,0.03
11.684780836105347,-0.04,0.01,0.02,0.04
11.6923668384552,-0.04,0.01,0.01,0.04
11.702849864959717,-0.03,0.0,0.01,0.03
11.71256971359253,-0.04,0.01,0.01,0.04
11.724902868270874,-0.04,0.02,-0.01,0.04
11.734091758728027,-0.04,0.01,0.0,0.04
11.744239807128906,-0.03,0.0,0.0,0.03
11.757083892822266,-0.04,0.01,0.0,0.04
11.762067794799805,-0.03,0.01,0.01,0.03
11.772034883499146,-0.03,0.0,0.01,0.03
11.783851861953735,-0.03,0.01,0.01,0.03
11.792212009429932,-0.04,0.01,0.0,0.04
11.801884889602661,-0.04,0.01,0.0,0.04
11.811870813369751,-0.05,0.02,0.0,0.05
11.824914932250977,-0.04,0.01,-0.01,0.04
11.831726789474487,-0.04,0.0,0.0,0.04
11.843778848648071,-0.04,0.01,0.0,0.04
11.85408878326416,-0.04,0.0,0.01,0.04
11.861501693725586,-0.03,0.01,0.01,0.03
11.876743793487549,-0.04,0.02,0.0,0.04
11.883441925048828,-0.04,0.0,0.01,0.04
11.892745971679688,-0.05,0.01,0.0,0.05
11.90188980102539,-0.03,0.01,0.01,0.03
11.91119384765625,-0.04,0.0,0.0,0.04
11.921051025390625,-0.05,0.0,0.01,0.05
11.933523893356323,-0.04,0.01,0.0,0.04
11.941736698150635,-0.04,0.01,0.0,0.04
11.952777862548828,-0.04,0.01,0.0,0.04
11.960729837417603,-0.04,0.0,0.01,0.04
11.972989797592163,-0.03,0.0,0.02,0.03
11.980485916137695,-0.03,0.0,0.01,0.03
11.992465019226074,-0.03,0.0,0.0,0.03
12.006334781646729,-0.04,0.01,0.0,0.04
12.010207891464233,-0.04,0.01,0.0,0.04
12.019917964935303,-0.04,0.01,0.0,0.04
12.031490802764893,-0.04,0.01,0.0,0.04
12.04140567779541,-0.04,0.01,0.0,0.04
12.055251836776733,-0.04,0.01,0.0,0.04
12.06022596359253,-0.03,0.0,0.0,0.03
12.070247888565063,-0.04,0.01,0.0,0.04
12.082058906555176,-0.04,0.01,0.01,0.04
12.091590881347656,-0.04,0.01,0.0,0.04
12.102965831756592,-0.04,0.02,0.0,0.04
12.10936188697815,-0.04,0.01,0.0,0.04
12.119549751281738,-0.04,0.01,0.0,0.04
12.131035804748535,-0.04,0.01,0.01,0.04
12.141613960266113,-0.03,0.01,0.0,0.03
12.154103755950928,-0.03,0.01,0.0,0.03
12.15920090675354,-0.04,0.02,0.01,0.04
12.168922901153564,-0.04,0.02,0.01,0.04
12.181639671325684,-0.03,0.01,0.0,0.03
12.188803672790527,-0.03,0.01,0.0,0.03
12.198834896087646,-0.03,0.01,-0.01,0.03
12.209013938903809,-0.04,0.01,-0.01,0.04
12.221253871917725,-0.03,0.01,0.01,0.03
12.230546951293945,-0.04,0.01,0.0,0.04
12.23933482170105,-0.04,0.01,0.0,0.04
12.251197814941406,-0.04,0.01,0.0,0.04
12.25868272781372,-0.03,0.01,0.0,0.03
12.270311832427979,-0.03,0.01,0.01,0.03
12.279185771942139,-0.03,0.01,0.01,0.03
12.289708852767944,-0.04,0.01,0.0,0.04
12.303999900817871,-0.04,0.0,0.0,0.04
12.30820369720459,-0.03,0.0,0.0,0.03
12.318334817886353,-0.03,0.01,0.0,0.03
12.32992696762085,-0.04,0.01,0.0,0.04
12.33799695968628,-0.04,0.01,0.0,0.04
12.34773302078247,-0.04,0.01,0.0,0.04
12.35930585861206,-0.03,0.0,0.0,0.03
12.369760990142822,-0.04,0.0,0.01,0.04
12.379127979278564,-0.04,0.01,0.01,0.04
12.388798713684082,-0.04,0.02,0.01,0.04
12.400761842727661,-0.04,0.0,0.01,0.04
12.407310009002686,-0.04,0.01,-0.01,0.04
12.41861081123352,-0.04,0.01,-0.01,0.04
12.429147720336914,-0.04,0.01,0.0,0.04
12.439328670501709,-0.03,0.0,0.01,0.03
12.449323892593384,-0.03,0.01,0.0,0.03
12.457006931304932,-0.04,0.01,0.01,0.04
12.467001914978027,-0.04,0.01,0.0,0.04
12.478978872299194,-0.03,0.01,0.0,0.03
12.489198684692383,-0.04,0.0,0.0,0.04
12.498296737670898,-0.03,0.0,0.0,0.03
12.506769895553589,-0.04,0.01,-0.01,0.04
12.516993999481201,-0.05,0.01,-0.01,0.05
12.528806686401367,-0.04,0.02,0.0,0.04
12.53847074508667,-0.04,0.01,-0.01,0.04
12.55107069015503,-0.04,0.01,0.0,0.04
12.556078910827637,-0.04,0.0,0.0,0.04
12.566682815551758,-0.04,0.01,0.01,0.04
12.577224731445312,-0.04,0.01,0.01,0.04
12.588255882263184,-0.03,0.0,0.0,0.03
12.602670907974243,-0.03,0.02,0.0,0.03
12.606186866760254,-0.04,0.0,-0.01,0.04
12.615843772888184,-0.04,0.0,0.0,0.04
12.628235816955566,-0.03,0.01,0.0,0.03
12.638652801513672,-0.04,-0.01,0.0,0.04
12.649433851242065,-0.04,0.01,0.0,0.04
12.655507802963257,-0.03,0.01,0.0,0.03
12.66567587852478,-0.04,0.01,0.01,0.04
12.675676822662354,-0.04,0.01,0.0,0.04
12.687681674957275,-0.04,0.01,-0.01,0.04
12.701016902923584,-0.04,0.01,0.0,0.04
12.705281734466553,-0.03,0.01,0.0,0.03
12.71540379524231,-0.04,0.01,-0.01,0.04
12.726555824279785,-0.04,0.01,-0.01,0.04
12.73669981956482,-0.04,0.01,-0.01,0.04
12.751231670379639,-0.04,0.01,0.01,0.04
12.754899024963379,-0.04,0.01,0.01,0.04
12.765328884124756,-0.04,0.01,0.0,0.04
12.77693486213684,-0.04,0.0,0.0,0.04
12.786847829818726,-0.04,0.01,0.0,0.04
12.8000328540802,-0.04,0.0,-0.01,0.04
12.804492950439453,-0.04,0.0,-0.01,0.04
12.814603805541992,-0.04,0.01,0.0,0.04
12.82634687423706,-0.03,0.01,-0.01,0.03
12.834926843643188,-0.04,0.01,0.0,0.04
12.84484577178955,-0.03,-0.01,0.0,0.03
12.854087829589844,-0.03,0.0,0.0,0.03
12.866792678833008,-0.03,0.01,0.01,0.03
12.876588821411133,-0.03,0.02,0.0,0.03
12.886216878890991,-0.04,0.02,0.0,0.04
12.898724794387817,-0.04,0.0,0.0,0.04
12.903939723968506,-0.04,0.0,0.0,0.04
12.913972854614258,-0.03,0.01,0.0,0.03
12.925720691680908,-0.03,0.01,0.0,0.03
12.936298847198486,-0.04,0.01,0.0,0.04
12.949776887893677,-0.03,0.01,0.0,0.03
12.953406810760498,-0.04,0.02,0.0,0.04
12.963700771331787,-0.04,0.01,0.0,0.04
12.975865840911865,-0.04,0.01,-0.01,0.04
12.984651803970337,-0.04,0.01,0.0,0.04
12.996603012084961,-0.03,0.01,0.0,0.03
13.003192901611328,-0.04,0.01,0.01,0.04
13.013387680053711,-0.03,0.0,0.0,0.03
13.025209903717041,-0.04,0.0,0.01,0.04
13.03508186340332,-0.03,0.0,0.01,0.03
13.046509742736816,-0.03,0.01,0.01,0.03
13.052867889404297,-0.05,0.0,0.0,0.05
13.062964916229248,-0.03,-0.01,0.0,0.03
13.075340747833252,-0.03,0.0,-0.01,0.03
13.084190845489502,-0.03,0.02,0.0,0.03
13.09703779220581,-0.04,0.02,0.0,0.04
13.10240387916565,-0.04,0.0,0.0,0.04
13.112591743469238,-0.03,0.01,0.0,0.03
13.12437391281128,-0.03,0.01,0.01,0.03
13.13425087928772,-0.04,0.01,0.0,0.04
13.145488739013672,-0.04,0.01,0.01,0.04
13.15193486213684,-0.04,0.01,0.0,0.04
13.162494897842407,-0.03,0.01,0.0,0.03
13.174619674682617,-0.04,0.01,0.0,0.04
13.183668851852417,-0.03,0.01,0.02,0.03
13.192399024963379,-0.03,0.01,0.01,0.03
13.201725006103516,-0.03,0.0,0.0,0.03
13.214043855667114,-0.03,0.01,0.0,0.03
13.222877979278564,-0.03,0.01,-0.01,0.03
13.233160018920898,-0.03,0.01,-0.02,0.03
13.246295928955078,-0.04,0.02,0.0,0.04
13.251298904418945,-0.04,0.02,0.01,0.04
13.261510848999023,-0.03,0.0,0.0,0.03
13.273215770721436,-0.03,0.0,0.0,0.03
13.28127670288086,-0.03,0.0,0.01,0.03
13.291053771972656,-0.03,0.01,0.02,0.03
13.302830696105957,-0.03,0.0,0.01,0.03
13.312520980834961,-0.03,0.01,0.0,0.03
13.323487758636475,-0.04,0.01,0.01,0.04
13.332915782928467,-0.04,0.02,-0.01,0.04
13.344141006469727,-0.04,0.01,0.0,0.04
13.350772857666016,-0.03,0.0,0.0,0.03
13.361140727996826,-0.04,0.01,0.0,0.04
13.373211860656738,-0.03,0.01,0.01,0.03
13.382693767547607,-0.04,0.0,0.0,0.04
13.39298677444458,-0.03,0.01,0.01,0.03
13.40031886100769,-0.04,0.01,0.01,0.04
13.41044569015503,-0.04,0.01,-0.01,0.04
13.422136783599854,-0.04,0.0,-0.01,0.04
13.431975841522217,-0.04,0.0,0.0,0.04
13.4445219039917,-0.04,0.01,0.0,0.04
13.45009994506836,-0.04,0.02,0.0,0.04
13.459929943084717,-0.04,0.02,0.01,0.04
13.472400903701782,-0.03,0.01,0.02,0.03
13.481560707092285,-0.03,0.0,0.01,0.03
13.494067907333374,-0.03,0.0,0.0,0.03
13.49947190284729,-0.03,0.0,0.0,0.03
13.512174844741821,-0.04,0.01,0.0,0.04
13.519285678863525,-0.04,0.01,0.0,0.04
13.531524896621704,-0.03,0.01,0.0,0.03
13.540000915527344,-0.04,0.0,0.0,0.04
13.549458980560303,-0.04,0.01,-0.01,0.04
13.561543941497803,-0.03,0.01,0.0,0.03
13.569427013397217,-0.03,0.0,0.0,0.03
13.581385850906372,-0.04,0.0,0.0,0.04
13.592357873916626,-0.04,0.01,0.0,0.04
13.599089860916138,-0.03,0.01,0.0,0.03
13.609138011932373,-0.04,0.02,0.0,0.04
13.621626853942871,-0.03,0.01,0.0,0.03
13.62997579574585,-0.03,0.01,0.0,0.03
13.640354871749878,-0.03,0.01,0.0,0.03
13.648650884628296,-0.04,0.0,0.0,0.04
13.661017894744873,-0.03,0.01,0.0,0.03
13.670944690704346,-0.03,0.02,-0.01,0.03
13.680663824081421,-0.04,0.02,0.01,0.04
13.693315982818604,-0.04,0.01,0.0,0.04
13.698250770568848,-0.04,0.01,0.0,0.04
13.708532810211182,-0.03,0.0,0.0,0.03
13.721144676208496,-0.04,0.0,-0.02,0.04
13.728279829025269,-0.04,0.0,0.0,0.04
13.737957000732422,-0.04,0.01,0.0,0.04
13.749500751495361,-0.04,0.01,0.0,0.04
13.759315013885498,-0.04,0.01,0.0,0.04
13.770923852920532,-0.03,0.0,0.0,0.03
13.779563903808594,-0.04,0.0,0.0,0.04
13.78994369506836,-0.04,0.01,0.0,0.04
13.797632694244385,-0.04,0.01,-0.01,0.04
13.807538986206055,-0.04,0.01,-0.01,0.04
13.819662809371948,-0.03,0.01,-0.01,0.03
13.829468727111816,-0.03,0.0,-0.01,0.03
13.841119766235352,-0.03,0.01,0.0,0.03
13.847298860549927,-0.03,0.01,0.0,0.03
13.857649803161621,-0.02,0.01,0.01,0.02
13.870011806488037,-0.04,0.0,0.0,0.04
13.877472877502441,-0.04,0.01,-0.01,0.04
13.887338876724243,-0.04,0.01,0.0,0.04
13.897247791290283,-0.03,0.02,-0.01,0.03
13.909947872161865,-0.04,0.02,-0.01,0.04
13.919388771057129,-0.04,0.01,0.0,0.04
13.927114009857178,-0.03,0.0,0.0,0.03
13.936444759368896,-0.03,0.0,-0.01,0.03
13.946879863739014,-0.03,0.01,0.0,0.03
13.957238674163818,-0.03,0.0,0.01,0.03
13.96964693069458,-0.04,0.01,0.0,0.04
13.977584838867188,-0.04,0.01,0.0,0.04
13.988884925842285,-0.04,0.02,0.0,0.04
13.996198892593384,-0.03,0.01,0.0,0.03
14.006757736206055,-0.04,0.0,0.0,0.04
14.017490863800049,-0.04,0.0,0.0,0.04
14.028181791305542,-0.03,0.0,0.0,0.03
14.040588855743408,-0.04,0.01,0.0,0.04
14.045929908752441,-0.04,0.02,0.01,0.04
14.056015014648438,-0.04,0.01,0.0,0.04
14.067142009735107,-0.04,0.01,0.0,0.04
14.078102827072144,-0.03,0.01,0.0,0.03
14.093612670898438,-0.03,0.0,0.0,0.03
14.095408916473389,-0.03,0.01,0.0,0.03
14.105929851531982,-0.04,0.01,-0.01,0.04
14.11739182472229,-0.04,0.0,-0.01,0.04
14.12738585472107,-0.04,0.02,0.0,0.04
14.137723922729492,-0.04,0.01,0.0,0.04
14.145367860794067,-0.03,0.01,0.0,0.03
14.155573844909668,-0.03,0.0,0.0,0.03
14.166355848312378,-0.03,0.0,0.0,0.03
14.176809787750244,-0.03,0.01,0.0,0.03
14.188971996307373,-0.03,0.01,0.0,0.03
14.194634914398193,-0.03,0.01,0.0,0.03
14.205516815185547,-0.04,0.01,-0.01,0.04
14.217378854751587,-0.03,0.01,0.0,0.03
14.22639274597168,-0.03,0.02,0.0,0.03
14.237538814544678,-0.04,0.01,0.01,0.04
14.244922876358032,-0.03,0.0,0.0,0.03
14.254801750183105,-0.04,0.01,0.0,0.04
14.266404867172241,-0.03,0.01,0.0,0.03
14.274425983428955,-0.04,0.01,0.0,0.04
14.283954858779907,-0.04,0.01,0.0,0.04
14.294155836105347,-0.04,0.0,0.0,0.04
14.30643081665039,-0.03,0.0,0.0,0.03
14.314031839370728,-0.03,0.01,0.02,0.03
14.326013803482056,-0.03,0.01,0.0,0.03
14.335816860198975,-0.03,0.0,0.0,0.03
14.343974828720093,-0.03,0.01,-0.01,0.03
14.355682849884033,-0.03,0.01,0.0,0.03
14.364596843719482,-0.03,0.01,0.0,0.03
14.376012802124023,-0.03,0.02,-0.01,0.03
14.393329858779907,-0.03,0.0,-0.01,0.03
14.394616842269897,-0.04,0.0,0.0,0.04
14.403549671173096,-0.03,0.01,0.0,0.03
14.415427684783936,-0.03,0.0,0.0,0.03
14.425298690795898,-0.03,0.01,0.01,0.03
14.437713861465454,-0.03,0.01,0.01,0.03
14.443175792694092,-0.03,0.01,0.0,0.03
14.454356670379639,-0.03,0.01,0.0,0.03
14.465283870697021,-0.04,0.01,0.0,0.04
14.47498083114624,-0.04,0.0,0.0,0.04
14.488577842712402,-0.04,0.0,0.0,0.04
14.49256181716919,-0.04,0.0,0.0,0.04
14.502717971801758,-0.04,0.0,0.0,0.04
14.514863967895508,-0.04,0.01,0.0,0.04
14.525053024291992,-0.03,0.01,-0.01,0.03
14.538204669952393,-0.03,0.02,0.0,0.03
14.542243003845215,-0.03,0.0,0.0,0.03
14.55217170715332,-0.03,0.0,0.0,0.03
14.564243793487549,-0.03,0.01,0.0,0.03
14.57414984703064,-0.04,0.01,0.0,0.04
14.584837913513184,-0.03,0.01,0.01,0.03
14.592055797576904,-0.03,0.01,0.0,0.03
14.602335929870605,-0.04,0.01,0.0,0.04
14.614303827285767,-0.03,0.0,0.0,0.03
14.621980905532837,-0.03,0.0,-0.01,0.03
14.631732940673828,-0.03,0.01,-0.01,0.03
14.641893863677979,-0.03,0.01,0.0,0.03
14.652040004730225,-0.04,0.01,0.01,0.04
14.663612842559814,-0.03,0.01,0.0,0.03
14.671666860580444,-0.03,0.02,0.01,0.03
14.681299686431885,-0.03,0.01,0.0,0.03
14.691390991210938,-0.04,0.01,0.0,0.04
14.70152473449707,-0.04,0.01,-0.01,0.04
14.713461875915527,-0.04,0.01,0.0,0.04
14.723115921020508,-0.03,0.01,-0.01,0.03
14.734635829925537,-0.04,0.01,-0.01,0.04
14.741131782531738,-0.03,0.01,0.01,0.03
14.751224994659424,-0.03,0.01,0.02,0.03
14.76332688331604,-0.04,0.01,0.02,0.04
14.772924900054932,-0.04,0.01,0.0,0.04
14.78681993484497,-0.03,0.0,0.0,0.03
14.790697813034058,-0.04,0.01,0.0,0.04
14.800583839416504,-0.04,0.02,-0.01,0.04
14.812662839889526,-0.04,0.01,-0.01,0.04
14.823221683502197,-0.03,0.02,0.0,0.03
14.835243701934814,-0.03,0.0,0.01,0.03
14.840267896652222,-0.03,-0.01,0.01,0.03
14.850234985351562,-0.03,0.0,0.01,0.03
14.860360860824585,-0.03,0.02,0.0,0.03
14.872283935546875,-0.03,0.03,0.0,0.04
14.882412910461426,-0.03,0.02,0.0,0.03
14.89008378982544,-0.03,0.01,0.0,0.03
14.900324821472168,-0.03,0.01,0.01,0.03
14.91243600845337,-0.03,0.0,0.0,0.03
14.921363830566406,-0.03,0.0,0.01,0.03
14.932229995727539,-0.03,0.02,0.01,0.03
14.940025806427002,-0.04,0.02,0.01,0.04
14.952038764953613,-0.04,0.01,0.0,0.04
14.961269855499268,-0.03,0.01,0.0,0.03
14.969693899154663,-0.04,0.02,-0.01,0.04
14.979400873184204,-0.03,0.0,0.0,0.03
14.989701747894287,-0.03,-0.01,0.01,0.03
14.999411821365356,-0.03,0.02,0.01,0.03
15.01131296157837,-0.03,0.02,0.0,0.03
15.021095752716064,-0.03,0.01,0.0,0.03
15.035213947296143,-0.04,0.01,0.0,0.04
15.038841724395752,-0.03,0.01,0.0,0.03
15.048987865447998,-0.04,0.0,0.0,0.04
15.059351921081543,-0.03,0.0,-0.01,0.03
15.069890022277832,-0.03,0.0,-0.01,0.03
15.080950736999512,-0.03,0.01,0.0,0.03
15.088804721832275,-0.03,0.01,0.01,0.03
15.098701000213623,-0.04,0.01,0.0,0.04
15.110023021697998,-0.04,0.01,0.0,0.04
15.119995832443237,-0.04,0.01,0.0,0.04
15.137188911437988,-0.04,0.01,0.0,0.04
15.138282775878906,-0.03,0.0,-0.01,0.03
15.148115873336792,-0.03,0.01,0.0,0.03
15.159774780273438,-0.03,0.01,0.0,0.03
15.169754981994629,-0.03,0.01,0.01,0.03
15.181717872619629,-0.03,0.0,0.01,0.03
15.18799090385437,-0.03,0.0,0.01,0.03
15.197904825210571,-0.03,0.0,0.0,0.03
15.209840774536133,-0.03,0.0,0.01,0.03
15.21858286857605,-0.03,0.0,0.01,0.03
15.230498790740967,-0.03,0.01,0.0,0.03
15.237724781036377,-0.04,0.0,0.0,0.04
15.247760772705078,-0.03,0.01,-0.01,0.03
15.258825778961182,-0.03,0.01,-0.01,0.03
15.270368814468384,-0.04,0.0,-0.01,0.04
15.285167694091797,-0.04,0.01,0.0,0.04
15.287045955657959,-0.03,0.01,0.0,0.03
15.297092914581299,-0.03,0.01,0.0,0.03
15.308767795562744,-0.03,0.01,0.0,0.03
15.319310903549194,-0.03,0.0,0.0,0.03
15.33115291595459,-0.04,0.0,0.01,0.04
15.337103843688965,-0.03,0.01,0.0,0.03
15.346922874450684,-0.03,0.0,-0.01,0.03
15.357158899307251,-0.03,0.01,-0.01,0.03
15.368704795837402,-0.03,0.01,0.0,0.03
15.380046844482422,-0.03,0.02,0.0,0.03
15.386435985565186,-0.03,0.01,0.01,0.03
15.396631717681885,-0.04,0.0,0.01,0.04
15.408679962158203,-0.03,0.01,0.01,0.03
15.41723084449768,-0.03,0.01,0.01,0.03
15.430189847946167,-0.04,0.01,0.01,0.04
15.436388969421387,-0.04,0.02,0.0,0.04
15.446117877960205,-0.04,0.02,0.0,0.04
15.4595308303833,-0.03,0.0,-0.01,0.03
15.465921878814697,-0.03,0.01,0.0,0.03
15.47595500946045,-0.03,-0.01,0.0,0.03
15.486032009124756,-0.03,-0.01,0.02,0.03
15.498175859451294,-0.03,0.0,0.0,0.03
15.505770683288574,-0.03,0.01,0.0,0.03
15.517027854919434,-0.03,0.01,0.0,0.03
15.530817985534668,-0.04,0.01,0.0,0.04
15.535118818283081,-0.04,0.01,0.0,0.04
15.545601844787598,-0.03,0.0,0.0,0.03
15.55803394317627,-0.04,0.0,0.01,0.04
15.56720781326294,-0.03,0.01,0.02,0.03
15.577951908111572,-0.03,0.02,0.01,0.03
15.585031986236572,-0.03,0.02,0.0,0.03
15.5949068069458,-0.03,0.01,-0.01,0.03
15.60781979560852,-0.04,0.0,0.0,0.04
15.616856813430786,-0.03,0.01,-0.01,0.03
15.625663757324219,-0.03,0.01,-0.01,0.03
15.63475489616394,-0.03,0.01,0.0,0.03
15.64701795578003,-0.02,0.01,0.01,0.02
15.656742811203003,-0.03,0.02,0.0,0.03
15.666842937469482,-0.02,0.01,0.01,0.02
15.680364847183228,-0.03,0.01,0.0,0.03
15.684476852416992,-0.03,0.0,0.0,0.03
15.694523811340332,-0.02,0.01,0.0,0.02
15.70696496963501,-0.03,0.01,0.01,0.03
15.715989828109741,-0.03,0.02,0.0,0.03
15.725091934204102,-0.03,0.01,0.0,0.03
15.733852863311768,-0.03,0.01,0.0,0.03
15.744472980499268,-0.03,0.02,0.01,0.03
15.756269931793213,-0.03,0.0,0.0,0.03
15.766057014465332,-0.04,0.01,0.0,0.04
15.779583930969238,-0.03,0.01,0.0,0.03
15.783912897109985,-0.03,0.0,0.0,0.03
15.793729782104492,-0.03,0.0,0.01,0.03
15.806753873825073,-0.02,0.0,0.0,0.02
15.815664768218994,-0.02,0.01,0.01,0.02
15.826535701751709,-0.03,0.0,0.02,0.03
15.833393812179565,-0.03,0.01,0.0,0.03
15.843209743499756,-0.03,0.01,0.0,0.03
15.856116771697998,-0.04,0.02,0.01,0.04
15.865428924560547,-0.03,0.01,0.0,0.03
15.872906684875488,-0.04,0.01,0.01,0.04
15.88290286064148,-0.03,0.0,0.01,0.03
15.894855976104736,-0.03,0.0,-0.01,0.03
15.904568672180176,-0.03,0.01,0.0,0.03
15.91437578201294,-0.03,0.0,0.01,0.03
15.92501974105835,-0.03,0.01,0.0,0.03
15.932426929473877,-0.03,0.02,-0.01,0.03
15.947219848632812,-0.03,0.01,0.0,0.03
15.954506874084473,-0.03,0.0,0.01,0.03
15.963994026184082,-0.03,0.0,0.0,0.03
15.972092866897583,-0.03,0.01,0.0,0.03
15.984403848648071,-0.03,0.0,0.0,0.03
15.994140863418579,-0.03,0.01,0.0,0.03
16.004601001739502,-0.03,0.02,0.01,0.03
16.013654708862305,-0.03,0.02,0.0,0.03
16.022990703582764,-0.03,0.0,0.01,0.03
16.03304886817932,-0.03,0.0,0.01,0.03
16.043807983398438,-0.03,-0.01,0.01,0.03
16.054736852645874,-0.04,0.0,0.0,0.04
16.063589811325073,-0.03,0.02,0.0,0.03
16.073692798614502,-0.03,0.02,-0.02,0.04
16.08183193206787,-0.03,0.01,-0.01,0.03
16.093665838241577,-0.02,0.02,0.01,0.03
16.102866888046265,-0.03,0.01,0.01,0.03
16.11252784729004,-0.02,0.0,0.01,0.02
16.120969772338867,-0.03,0.0,0.01,0.03
16.13331389427185,-0.02,0.0,-0.01,0.02
16.143340826034546,-0.03,0.01,0.0,0.03
16.15065097808838,-0.04,0.01,0.0,0.04
16.162808895111084,-0.03,0.01,0.0,0.03
16.17564582824707,-0.03,0.01,0.0,0.03
16.18061089515686,-0.03,0.01,-0.01,0.03
16.193362712860107,-0.02,0.0,0.0,0.02
16.20060396194458,-0.03,0.0,0.0,0.03
16.212880849838257,-0.03,0.02,0.01,0.03
16.222728729248047,-0.04,0.02,0.01,0.04
16.230581760406494,-0.03,0.0,0.01,0.03
16.240415811538696,-0.04,0.01,0.01,0.04
16.25322675704956,-0.03,0.01,0.0,0.03
16.260204792022705,-0.03,0.01,0.0,0.03
16.270263671875,-0.03,0.0,0.0,0.03
16.279944896697998,-0.03,0.0,0.0,0.03
16.29248881340027,-0.03,0.01,0.01,0.03
16.302517890930176,-0.02,0.01,0.0,0.02
16.31018090248108,-0.03,0.02,0.0,0.03
16.319865703582764,-0.03,0.01,0.01,0.03
16.33057689666748,-0.02,0.0,0.0,0.02
16.341986894607544,-0.03,0.0,0.0,0.03
16.35167694091797,-0.03,-0.01,-0.01,0.03
16.361509799957275,-0.03,0.0,0.0,0.03
16.371843814849854,-0.02,0.01,0.01,0.02
16.379695892333984,-0.03,0.01,0.01,0.03
16.389785766601562,-0.03,0.01,0.01,0.03
16.401776790618896,-0.03,0.0,0.01,0.03
16.411159992218018,-0.03,0.0,-0.01,0.03
16.42211389541626,-0.03,0.01,0.0,0.03
16.429597854614258,-0.04,0.01,-0.01,0.04
16.439513683319092,-0.03,0.01,-0.01,0.03
16.451416015625,-0.02,0.01,-0.01,0.02
16.459335803985596,-0.03,0.01,0.01,0.03
16.46889591217041,-0.02,0.0,0.01,0.02
16.47872495651245,-0.03,0.0,0.0,0.03
16.489219903945923,-0.03,0.0,0.01,0.03
16.501529693603516,-0.04,0.01,-0.01,0.04
16.51020574569702,-0.04,0.02,-0.01,0.04
16.52037000656128,-0.03,0.01,0.0,0.03
16.52869701385498,-0.03,0.01,0.01,0.03
16.538646697998047,-0.03,0.0,0.01,0.03
16.549768924713135,-0.03,0.0,0.01,0.03
16.559871673583984,-0.03,0.0,0.01,0.03
16.574235916137695,-0.03,0.0,0.0,0.03
16.57790780067444,-0.03,0.01,-0.01,0.03
16.58848476409912,-0.03,0.02,-0.01,0.03
16.600100994110107,-0.03,0.01,0.0,0.03
16.609192848205566,-0.03,0.01,0.0,0.03
16.62223196029663,-0.03,0.01,0.0,0.03
16.62774085998535,-0.03,0.01,0.0,0.03
16.63800573348999,-0.03,0.0,0.0,0.03
16.6496639251709,-0.03,0.0,0.01,0.03
16.659499883651733,-0.03,0.01,0.01,0.03
16.67035484313965,-0.03,0.0,0.0,0.03
16.677366733551025,-0.03,0.01,-0.01,0.03
16.68732500076294,-0.03,0.0,0.0,0.03
16.69953680038452,-0.03,0.01,0.0,0.03
16.709325790405273,-0.03,0.0,0.0,0.03
16.7221097946167,-0.03,0.01,0.02,0.03
16.727030754089355,-0.02,0.02,0.01,0.03
16.742235898971558,-0.03,0.01,0.01,0.03
16.74893879890442,-0.03,0.01,0.0,0.03
16.757949829101562,-0.03,0.01,0.0,0.03
16.768666744232178,-0.03,0.01,-0.01,0.03
16.776768684387207,-0.03,0.01,0.0,0.03
16.78700590133667,-0.03,0.0,0.0,0.03
16.798826694488525,-0.03,0.01,0.0,0.03
16.808551788330078,-0.03,0.01,0.01,0.03
16.8227858543396,-0.04,0.01,0.01,0.04
16.826300859451294,-0.03,0.01,0.01,0.03
16.836631774902344,-0.03,0.0,0.0,0.03
16.84838581085205,-0.03,0.01,0.0,0.03
16.85811996459961,-0.03,0.01,-0.01,0.03
16.87100887298584,-0.03,0.01,-0.01,0.03
16.87620186805725,-0.03,0.0,0.0,0.03
16.88588285446167,-0.03,0.0,-0.01,0.03
16.898138999938965,-0.03,0.01,0.0,0.03
16.906758785247803,-0.03,0.01,0.0,0.03
16.91913080215454,-0.03,0.0,0.0,0.03
16.925959825515747,-0.04,0.0,-0.01,0.04
16.938336849212646,-0.02,0.01,0.0,0.02
16.945348739624023,-0.02,0.01,0.0,0.02
16.957920789718628,-0.03,0.0,0.0,0.03
16.97240686416626,-0.03,0.01,0.0,0.03
16.976111888885498,-0.02,0.01,0.0,0.02
16.98527479171753,-0.02,0.0,0.0,0.02
16.996731758117676,-0.02,0.01,0.0,0.02
17.00644874572754,-0.02,0.01,0.0,0.02
17.01897096633911,-0.03,0.02,0.0,0.03
17.02495288848877,-0.03,0.01,0.01,0.03
17.03549575805664,-0.04,0.01,0.0,0.04
17.04744291305542,-0.03,0.01,0.0,0.03
17.054537773132324,-0.03,0.01,0.0,0.03
17.064560890197754,-0.03,0.01,0.0,0.03
17.075056791305542,-0.02,0.01,0.0,0.02
17.087759017944336,-0.04,0.01,0.0,0.04
17.096301794052124,-0.04,0.0,0.01,0.04
17.104398727416992,-0.03,0.01,0.01,0.03
17.114192008972168,-0.03,0.0,0.01,0.03
17.124311923980713,-0.03,0.0,0.0,0.03
17.13633680343628,-0.03,0.01,0.0,0.03
17.14421272277832,-0.04,0.01,0.0,0.04
17.156638860702515,-0.03,0.01,0.0,0.03
17.172661781311035,-0.02,0.01,0.0,0.02
17.174080848693848,-0.02,0.01,0.01,0.02
17.18365788459778,-0.03,0.01,0.01,0.03
17.194124698638916,-0.02,0.01,0.0,0.02
17.206323862075806,-0.03,0.01,0.0,0.03
17.217312812805176,-0.03,0.0,0.0,0.03
17.223529815673828,-0.03,0.01,-0.01,0.03
17.23349094390869,-0.02,0.01,0.0,0.02
17.244744777679443,-0.02,0.01,0.0,0.02
17.255422830581665,-0.03,0.01,0.0,0.03
17.26949381828308,-0.03,0.0,0.01,0.03
17.27285885810852,-0.03,0.0,0.01,0.03
17.283021926879883,-0.03,0.01,0.0,0.03
17.29353380203247,-0.02,0.0,0.0,0.02
17.30632781982422,-0.02,0.01,-0.01,0.02
17.318367958068848,-0.02,0.01,0.01,0.02
17.322621822357178,-0.03,0.01,0.01,0.03
17.332486867904663,-0.02,0.01,0.01,0.02
17.342965841293335,-0.03,0.01,0.0,0.03
17.35407280921936,-0.03,0.01,0.0,0.03
17.365668773651123,-0.03,0.01,0.0,0.03
17.372560024261475,-0.03,0.01,0.01,0.03
17.382550716400146,-0.03,0.01,0.0,0.03
17.394325733184814,-0.02,0.01,0.0,0.02
17.40515899658203,-0.03,0.0,0.0,0.03
17.416465759277344,-0.03,0.01,0.0,0.03
17.42216968536377,-0.02,0.0,0.0,0.02
17.43201184272766,-0.03,0.01,0.0,0.03
17.44235587120056,-0.03,0.0,0.01,0.03
17.454364776611328,-0.03,0.01,0.01,0.03
17.468767881393433,-0.03,0.01,-0.01,0.03
17.47161293029785,-0.03,0.0,0.0,0.03
17.481590747833252,-0.03,0.01,-0.01,0.03
17.49373197555542,-0.03,0.0,-0.01,0.03
17.503665924072266,-0.03,0.01,0.0,0.03
17.51517081260681,-0.03,0.01,0.0,0.03
17.521626949310303,-0.03,0.0,0.0,0.03
17.531349897384644,-0.03,0.0,0.0,0.03
17.54325771331787,-0.03,0.01,0.0,0.03
17.55623984336853,-0.03,0.01,0.0,0.03
17.568617820739746,-0.02,0.01,0.0,0.02
17.57508897781372,-0.02,0.01,0.0,0.02
17.58473300933838,-0.02,0.0,0.0,0.02
17.59707498550415,-0.03,0.0,0.0,0.03
17.607240676879883,-0.02,0.0,0.01,0.02
17.61929988861084,-0.02,0.0,0.01,0.02
17.624749898910522,-0.02,0.01,0.0,0.02
17.6346218585968,-0.03,0.01,0.01,0.03
17.646572828292847,-0.03,0.01,-0.01,0.03
17.656466960906982,-0.03,0.01,0.0,0.03
17.667699813842773,-0.03,0.01,0.0,0.03
17.674330711364746,-0.03,0.01,0.0,0.03
17.68412494659424,-0.02,0.01,0.0,0.02
17.695591926574707,-0.02,0.01,0.0,0.02
17.705211877822876,-0.02,0.01,0.0,0.02
17.71745777130127,-0.02,0.01,0.0,0.02
17.72422981262207,-0.03,0.01,0.01,0.03
17.733999729156494,-0.04,0.01,0.01,0.04
17.746325969696045,-0.03,0.0,-0.01,0.03
17.75611186027527,-0.03,0.01,0.0,0.03
17.7684907913208,-0.03,0.0,0.0,0.03
17.773799896240234,-0.03,0.01,0.0,0.03
17.78338384628296,-0.03,0.01,0.01,0.03
17.79577875137329,-0.03,0.0,0.0,0.03
17.804495811462402,-0.03,0.0,0.0,0.03
17.817640781402588,-0.03,0.01,0.01,0.03
17.823638916015625,-0.02,0.0,0.0,0.02
17.833333015441895,-0.02,0.0,0.0,0.02
17.844700813293457,-0.02,0.0,0.0,0.02
17.85522985458374,-0.03,0.01,0.0,0.03
17.8697509765625,-0.03,0.0,-0.01,0.03
17.87307381629944,-0.02,0.01,0.0,0.02
17.89285373687744,-0.03,0.0,0.0,0.03
17.895061016082764,-0.02,0.0,-0.01,0.02
17.902947902679443,-0.03,0.01,0.0,0.03
17.9125657081604,-0.02,0.01,0.0,0.02
17.92276668548584,-0.03,0.01,0.0,0.03
17.932678699493408,-0.02,0.02,0.0,0.02
17.944655895233154,-0.03,0.01,0.0,0.03
17.95415496826172,-0.03,0.0,0.0,0.03
17.96681785583496,-0.03,0.01,0.0,0.03
17.972230911254883,-0.03,0.01,-0.01,0.03
17.982056856155396,-0.03,0.02,-0.01,0.03
17.99226188659668,-0.03,0.02,-0.01,0.03
18.004657745361328,-0.03,0.0,0.0,0.03
18.0195369720459,-0.02,0.01,0.01,0.02
18.021674871444702,-0.02,0.01,0.0,0.02
18.031790733337402,-0.02,0.0,0.01,0.02
18.044291019439697,-0.02,0.0,0.01,0.02
18.05490779876709,-0.03,0.01,-0.01,0.03
18.0654878616333,-0.03,0.01,0.0,0.03
18.07162380218506,-0.03,0.01,-0.01,0.03
18.08138084411621,-0.03,0.01,-0.01,0.03
18.091829776763916,-0.02,0.01,-0.01,0.02
18.10424780845642,-0.03,0.01,0.0,0.03
18.118855953216553,-0.02,0.0,0.01,0.02
18.120925903320312,-0.02,0.0,0.01,0.02
18.131117820739746,-0.02,0.01,-0.01,0.02
18.141600847244263,-0.03,0.01,0.0,0.03
18.152904987335205,-0.03,0.01,0.0,0.03
18.163885831832886,-0.03,0.0,-0.01,0.03
18.171007871627808,-0.02,0.01,0.01,0.02
18.180606842041016,-0.02,0.01,0.0,0.02
18.192457675933838,-0.02,0.01,0.0,0.02
18.202752828598022,-0.02,0.01,0.01,0.02
18.221426010131836,-0.03,0.01,0.0,0.03
18.22275686264038,-0.03,0.01,0.01,0.03
18.245343685150146,-0.02,0.0,0.0,0.02
18.250980854034424,-0.02,0.0,-0.01,0.02
18.25577187538147,-0.03,0.01,-0.01,0.03
18.263542890548706,-0.03,0.0,-0.01,0.03
18.270147800445557,-0.03,0.0,0.0,0.03
18.280452728271484,-0.03,0.01,0.01,0.03
18.291878700256348,-0.03,0.01,0.01,0.03
18.30181384086609,-0.03,0.01,0.02,0.03
18.313832759857178,-0.03,0.0,0.0,0.03
18.319740772247314,-0.03,0.01,-0.01,0.03
18.33007788658142,-0.03,0.01,0.0,0.03
18.342650890350342,-0.02,0.01,-0.01,0.02
18.352449893951416,-0.03,0.0,0.0,0.03
18.364181995391846,-0.03,0.01,0.0,0.03
18.369598865509033,-0.02,0.0,0.01,0.02
18.37912082672119,-0.02,0.0,0.0,0.02
18.391899824142456,-0.03,0.01,0.0,0.03
18.401134967803955,-0.03,0.0,0.01,0.03
18.41184687614441,-0.03,0.0,0.0,0.03
18.41922092437744,-0.03,0.01,-0.01,0.03
18.429351806640625,-0.02,0.02,0.0,0.02
18.441815853118896,-0.03,0.01,0.01,0.03
18.448840856552124,-0.03,0.0,0.0,0.03
18.458717823028564,-0.03,0.0,0.0,0.03
18.469167709350586,-0.02,0.0,0.01,0.02
18.480803966522217,-0.02,0.02,0.01,0.03
18.48900079727173,-0.02,0.01,0.02,0.03
18.501035690307617,-0.02,0.0,0.01,0.02
18.514641761779785,-0.03,0.01,0.0,0.03
18.51810073852539,-0.02,0.01,0.0,0.02
18.528366804122925,-0.02,0.01,0.0,0.02
18.53817081451416,-0.02,0.01,0.0,0.02
18.550036907196045,-0.02,0.01,0.01,0.02
18.564128875732422,-0.03,0.01,0.01,0.03
18.56806182861328,-0.03,0.0,0.01,0.03
18.57810878753662,-0.02,0.01,0.01,0.02
18.590412855148315,-0.03,0.01,0.01,0.03
18.599324703216553,-0.03,0.01,0.0,0.03
18.610832691192627,-0.03,0.01,0.0,0.03
18.617669820785522,-0.03,0.01,0.01,0.03
18.630008697509766,-0.02,0.01,0.0,0.02
18.63749885559082,-0.03,0.01,0.0,0.03
18.649946689605713,-0.02,0.01,0.01,0.02
18.66330885887146,-0.02,0.0,0.01,0.02
18.66721487045288,-0.02,0.0,0.0,0.02
18.67721390724182,-0.02,0.0,0.0,0.02
18.6875057220459,-0.02,0.01,0.0,0.02
18.69927167892456,-0.03,0.01,0.01,0.03
18.712369918823242,-0.03,0.0,0.0,0.03
18.716641902923584,-0.03,0.01,0.0,0.03
18.727022886276245,-0.02,0.01,0.0,0.02
18.737178802490234,-0.03,0.0,0.0,0.03
18.749274730682373,-0.03,0.01,0.01,0.03
18.7614107131958,-0.03,0.01,0.0,0.03
18.766677856445312,-0.02,0.01,0.0,0.02
18.776675701141357,-0.02,0.01,0.01,0.02
18.788533687591553,-0.02,0.01,0.0,0.02
18.79731273651123,-0.02,0.01,0.0,0.02
18.809433937072754,-0.02,0.0,0.0,0.02
18.816283702850342,-0.03,0.01,0.0,0.03
18.828275680541992,-0.02,0.01,0.0,0.02
18.83833074569702,-0.03,0.01,-0.01,0.03
18.846426010131836,-0.03,0.0,0.0,0.03
18.855979919433594,-0.03,0.01,0.02,0.03
18.865980863571167,-0.02,0.01,0.01,0.02
18.87575387954712,-0.02,0.0,0.01,0.02
18.887816905975342,-0.02,0.0,0.0,0.02
18.897353887557983,-0.02,0.01,0.0,0.02
18.907567024230957,-0.03,0.01,0.0,0.03
18.91547679901123,-0.02,0.01,0.0,0.02
18.926085948944092,-0.03,0.0,0.0,0.03
18.937074899673462,-0.03,0.0,0.0,0.03
18.94795799255371,-0.02,0.01,0.0,0.02
18.963029861450195,-0.02,0.01,0.01,0.02
18.9649498462677,-0.02,0.01,0.01,0.02
18.975473880767822,-0.02,0.01,0.0,0.02
18.987262725830078,-0.02,0.01,0.01,0.02
18.996769905090332,-0.02,0.0,0.01,0.02
19.01099181175232,-0.03,0.0,-0.01,0.03
19.0149028301239,-0.03,0.01,0.0,0.03
19.024832725524902,-0.03,0.01,0.0,0.03
19.03725290298462,-0.02,0.0,0.0,0.02
19.04655170440674,-0.03,0.01,0.01,0.03
19.059805870056152,-0.04,0.0,0.01,0.04
19.06452989578247,-0.02,0.01,0.0,0.02
19.075868844985962,-0.02,0.0,0.01,0.02
19.084593772888184,-0.02,0.0,0.01,0.02
19.096643924713135,-0.02,0.0,-0.01,0.02
19.107756853103638,-0.03,0.01,0.0,0.03
19.114049911499023,-0.02,0.01,0.0,0.02
19.124266862869263,-0.02,0.01,0.0,0.02
19.13657569885254,-0.03,0.01,0.0,0.03
19.1455397605896,-0.03,0.01,0.01,0.03
19.157794952392578,-0.02,0.01,0.0,0.02
19.16406774520874,-0.03,0.0,0.0,0.03
19.173948764801025,-0.02,0.0,0.0,0.02
19.183997869491577,-0.02,0.01,0.01,0.02
19.19572877883911,-0.03,0.01,0.0,0.03
19.208374977111816,-0.03,0.02,0.0,0.03
19.213218688964844,-0.02,0.01,0.0,0.02
19.223809719085693,-0.03,0.0,-0.01,0.03
19.234779834747314,-0.03,0.0,-0.01,0.03
19.246482849121094,-0.02,0.01,0.01,0.02
19.258736848831177,-0.03,0.01,0.01,0.03
19.26297378540039,-0.03,0.01,0.0,0.03
19.273215770721436,-0.02,0.01,0.0,0.02
19.283411026000977,-0.03,0.01,0.0,0.03
19.29551601409912,-0.02,0.0,0.01,0.02
19.306282997131348,-0.02,0.0,0.01,0.02
19.312760829925537,-0.03,0.0,0.0,0.03
19.32296895980835,-0.03,0.01,0.0,0.03
19.333903789520264,-0.03,0.01,0.0,0.03
19.344956874847412,-0.02,0.01,0.0,0.02
19.358834743499756,-0.03,0.01,0.0,0.03
19.362573862075806,-0.02,0.01,0.01,0.02
19.37246584892273,-0.02,0.0,0.0,0.02
19.384480953216553,-0.03,0.0,0.0,0.03
19.391823768615723,-0.03,0.0,0.0,0.03
19.402353763580322,-0.02,0.01,0.0,0.02
19.412038803100586,-0.02,0.01,0.01,0.02
19.424433708190918,-0.02,0.01,0.0,0.02
19.433825969696045,-0.03,0.01,0.01,0.03
19.443553924560547,-0.02,0.01,0.01,0.02
19.453653812408447,-0.02,0.01,0.0,0.02
19.461947917938232,-0.03,0.0,0.0,0.03
19.472067832946777,-0.02,0.0,0.0,0.02
19.482568740844727,-0.02,0.0,0.0,0.02
19.493398904800415,-0.02,0.01,0.0,0.02
19.508635997772217,-0.02,0.0,0.0,0.02
19.511122703552246,-0.02,0.01,0.0,0.02
19.52157688140869,-0.03,0.01,0.01,0.03
19.53277087211609,-0.03,0.01,0.01,0.03
19.543388843536377,-0.03,0.01,0.0,0.03
19.55759286880493,-0.02,0.01,0.01,0.02
19.560763835906982,-0.02,0.01,0.01,0.02
19.571356773376465,-0.02,0.01,0.0,0.02
19.583265781402588,-0.03,0.01,-0.01,0.03
19.590707778930664,-0.03,0.01,-0.01,0.03
19.600911855697632,-0.03,0.0,0.0,0.03
19.611032009124756,-0.02,0.02,-0.01,0.03
19.62131977081299,-0.03,0.01,0.0,0.03
19.632872819900513,-0.02,0.01,0.01,0.02
19.642324924468994,-0.02,0.0,0.01,0.02
19.654838800430298,-0.03,0.0,0.0,0.03
19.660547733306885,-0.02,0.01,0.01,0.02
19.670323848724365,-0.02,0.01,0.0,0.02
19.68059778213501,-0.02,0.0,0.0,0.02
19.69280982017517,-0.02,0.01,0.01,0.02
19.704516887664795,-0.02,0.01,-0.01,0.02
19.710021018981934,-0.02,0.0,0.0,0.02
19.719939708709717,-0.02,0.0,0.01,0.02
19.731159687042236,-0.02,0.0,0.01,0.02
19.742512702941895,-0.02,0.01,0.0,0.02
19.756871700286865,-0.03,0.01,0.01,0.03
19.759521007537842,-0.03,0.01,0.01,0.03
19.769608974456787,-0.03,0.01,0.0,0.03
19.781142711639404,-0.03,0.01,0.0,0.03
19.79037094116211,-0.03,0.01,0.0,0.03
19.80311870574951,-0.03,0.01,0.0,0.03
19.80953288078308,-0.03,0.01,0.01,0.03
19.819519996643066,-0.02,0.01,0.02,0.03
19.83152198791504,-0.03,0.01,0.01,0.03
19.841003894805908,-0.02,0.0,0.01,0.02
19.854232788085938,-0.03,0.01,0.0,0.03
19.858951807022095,-0.03,0.01,-0.01,0.03
19.868958950042725,-0.03,0.01,0.0,0.03
19.879313945770264,-0.02,0.01,0.0,0.02
19.891520977020264,-0.03,0.01,0.0,0.03
19.902509689331055,-0.01,0.01,0.01,0.01
19.908726692199707,-0.02,-0.01,0.01,0.02
19.918465852737427,-0.02,0.01,0.01,0.02
19.930692672729492,-0.02,0.0,0.01,0.02
19.939807891845703,-0.02,0.01,0.0,0.02
19.951448917388916,-0.02,0.01,0.0,0.02
19.958457946777344,-0.03,0.01,0.0,0.03
19.97159194946289,-0.02,0.01,-0.01,0.02
19.977900981903076,-0.03,0.01,0.0,0.03
19.98847484588623,-0.03,0.02,0.0,0.03
19.99799871444702,-0.03,0.01,0.01,0.03
20.00799584388733,-0.02,0.01,0.01,0.02
20.019728899002075,-0.02,0.01,0.01,0.02
20.029202938079834,-0.02,0.01,0.01,0.02
20.0399968624115,-0.02,0.0,0.01,0.02
20.05617380142212,-0.02,0.02,-0.01,0.03
20.057617902755737,-0.03,0.0,-0.01,0.03
20.067665815353394,-0.03,0.01,0.0,0.03
20.077646732330322,-0.02,0.01,0.0,0.02
20.089540004730225,-0.02,0.0,0.01,0.02
20.101836681365967,-0.02,0.01,0.0,0.02
20.1072838306427,-0.03,0.0,0.02,0.03
20.11746597290039,-0.02,0.01,0.01,0.02
20.126977920532227,-0.02,0.0,0.0,0.02
20.139122009277344,-0.02,0.01,0.0,0.02
20.151861906051636,-0.02,0.01,0.0,0.02
20.157145023345947,-0.03,0.01,-0.01,0.03
20.166815757751465,-0.03,0.01,-0.01,0.03
20.177335739135742,-0.02,0.01,0.0,0.02
20.189122676849365,-0.02,0.01,0.01,0.02
20.200724840164185,-0.02,0.0,0.01,0.02
20.206698894500732,-0.02,0.01,0.0,0.02
20.21675181388855,-0.03,0.0,0.0,0.03
20.22911286354065,-0.02,0.01,0.01,0.02
20.235970973968506,-0.02,0.01,0.0,0.02
20.246243953704834,-0.03,0.0,0.0,0.03
20.256460905075073,-0.03,0.0,0.0,0.03
20.268662929534912,-0.03,0.01,0.01,0.03
20.276134967803955,-0.03,0.01,0.0,0.03
20.28878688812256,-0.02,0.01,0.01,0.02
20.301743984222412,-0.02,0.0,0.01,0.02
20.305548906326294,-0.02,0.0,0.01,0.02
20.315860748291016,-0.02,0.0,0.0,0.02
20.326047897338867,-0.03,0.0,0.0,0.03
20.338621854782104,-0.02,0.01,0.0,0.02
20.34982967376709,-0.03,0.01,0.0,0.03
20.35550880432129,-0.03,0.0,0.0,0.03
20.365452766418457,-0.03,0.01,-0.01,0.03
20.37768793106079,-0.03,0.01,0.0,0.03
20.388057708740234,-0.02,0.01,0.01,0.02
20.400404930114746,-0.02,0.01,0.0,0.02
20.40506386756897,-0.02,0.01,0.0,0.02
20.415043830871582,-0.02,0.01,0.01,0.02
20.425516843795776,-0.03,0.0,0.0,0.03
20.4378879070282,-0.02,0.02,-0.01,0.03
20.44863486289978,-0.03,0.0,0.0,0.03
20.455044746398926,-0.03,0.01,-0.01,0.03
20.464695930480957,-0.02,0.01,0.0,0.02
20.474946975708008,-0.02,0.01,0.0,0.02
20.487136840820312,-0.02,0.0,0.01,0.02
20.503060817718506,-0.02,0.01,0.01,0.02
20.50426197052002,-0.02,0.01,0.0,0.02
20.51438879966736,-0.02,0.0,0.0,0.02
20.524465799331665,-0.02,0.0,0.0,0.02
20.53688383102417,-0.02,0.01,0.01,0.02
20.55044174194336,-0.03,0.01,0.0,0.03
20.55399990081787,-0.02,0.01,0.0,0.02
20.564044952392578,-0.03,0.01,0.0,0.03
20.57551670074463,-0.03,0.01,0.0,0.03
20.586049795150757,-0.02,0.01,0.0,0.02
20.599727869033813,-0.02,0.0,0.0,0.02
20.60368585586548,-0.03,0.01,0.0,0.03
20.61370277404785,-0.02,0.01,0.0,0.02
20.625186920166016,-0.02,0.01,0.0,0.02
20.635608673095703,-0.03,0.01,0.0,0.03
20.648196697235107,-0.03,0.02,0.0,0.03
20.653478860855103,-0.02,0.0,0.0,0.02
20.663400888442993,-0.01,0.0,0.0,0.01
20.6737117767334,-0.02,0.01,0.0,0.02
20.685730934143066,-0.03,0.01,0.01,0.03
20.69685983657837,-0.02,0.0,0.0,0.02
20.70290470123291,-0.02,0.01,0.0,0.02
20.713125705718994,-0.03,0.01,0.01,0.03
20.725281715393066,-0.01,0.01,0.01,0.01
20.734794855117798,-0.02,-0.01,0.0,0.02
20.743863821029663,-0.02,0.01,0.0,0.02
20.75275182723999,-0.03,0.01,0.0,0.03
20.76248788833618,-0.03,0.01,0.0,0.03
20.77417278289795,-0.03,0.01,0.0,0.03
20.78349280357361,-0.03,0.01,0.0,0.03
20.79663372039795,-0.03,0.02,0.01,0.03
20.8021559715271,-0.03,0.01,0.0,0.03
20.81232190132141,-0.02,0.01,0.0,0.02
20.8243248462677,-0.02,0.0,0.0,0.02
20.834378719329834,-0.03,0.01,-0.01,0.03
20.84771990776062,-0.02,0.01,0.0,0.02
20.851562976837158,-0.02,0.01,0.01,0.02
20.861893892288208,-0.03,0.01,0.01,0.03
20.874382972717285,-0.02,0.01,0.0,0.02
20.88330888748169,-0.03,0.01,0.0,0.03
20.892673015594482,-0.02,0.01,0.0,0.02
20.901330947875977,-0.02,0.01,0.0,0.02
20.91148281097412,-0.02,0.01,0.0,0.02
20.92334485054016,-0.02,0.01,-0.01,0.02
20.93148684501648,-0.02,0.01,0.01,0.02
20.941682815551758,-0.01,0.01,0.0,0.01
20.95157790184021,-0.03,0.0,0.0,0.03
20.961291790008545,-0.03,0.0,0.01,0.03
20.974113941192627,-0.03,0.01,0.0,0.03
20.977458953857422,-0.03,0.01,0.0,0.03
20.987027883529663,-0.03,0.01,0.0,0.03
20.997227907180786,-0.02,0.0,0.01,0.02
21.00943374633789,-0.03,0.0,0.0,0.03
21.016981840133667,-0.02,0.0,0.0,0.02
21.028756856918335,-0.02,0.0,-0.01,0.02
21.040939807891846,-0.02,0.01,0.0,0.02
21.0465726852417,-0.02,0.01,0.0,0.02
21.057068824768066,-0.02,0.02,0.01,0.03
21.066974878311157,-0.02,0.01,0.01,0.02
21.078648805618286,-0.02,0.01,0.0,0.02
21.091899871826172,-0.02,0.02,0.0,0.02
21.096057891845703,-0.02,0.02,0.0,0.02
21.106485843658447,-0.02,0.01,0.0,0.02
21.117504835128784,-0.02,0.01,0.0,0.02
21.12761402130127,-0.02,0.01,0.0,0.02
21.140954971313477,-0.02,0.0,0.01,0.02
21.1458797454834,-0.02,0.01,0.01,0.02
21.156211853027344,-0.02,0.0,-0.01,0.02
21.168064832687378,-0.02,0.01,0.01,0.02
21.177400827407837,-0.02,0.01,0.0,0.02
21.189319849014282,-0.02,0.01,0.0,0.02
21.195711851119995,-0.03,0.01,0.01,0.03
21.205652713775635,-0.03,0.02,0.01,0.03
21.218020915985107,-0.02,0.02,0.0,0.02
21.22743272781372,-0.01,0.01,0.0,0.01
21.239158868789673,-0.02,0.01,0.01,0.02
21.245062828063965,-0.02,0.01,0.01,0.02
21.255352020263672,-0.02,0.01,0.0,0.02
21.26602077484131,-0.02,0.01,0.01,0.02
21.276172876358032,-0.02,0.0,0.0,0.02
21.28666067123413,-0.02,0.01,0.0,0.02
21.294834852218628,-0.03,0.01,0.0,0.03
21.30603790283203,-0.03,0.02,0.0,0.03
21.31626796722412,-0.01,0.0,0.01,0.01
21.32592487335205,-0.02,0.0,0.01,0.02
21.33938980102539,-0.02,0.02,0.0,0.02
21.344056844711304,-0.02,0.02,0.0,0.02
21.35587167739868,-0.01,0.0,0.01,0.01
21.36588191986084,-0.02,0.0,-0.01,0.02
21.375967025756836,-0.02,0.01,0.01,0.02
21.38648796081543,-0.02,0.02,0.0,0.02
21.39409875869751,-0.03,0.01,0.01,0.03
21.408334732055664,-0.03,0.01,0.0,0.03
21.41533899307251,-0.02,0.01,0.0,0.02
21.425814867019653,-0.02,0.01,0.01,0.02
21.43734073638916,-0.02,0.01,0.01,0.02
21.44631290435791,-0.01,0.02,0.01,0.02
21.4562509059906,-0.03,0.01,0.0,0.03
21.46353769302368,-0.02,0.0,-0.01,0.02
21.47586488723755,-0.03,0.01,0.0,0.03
21.489351749420166,-0.03,0.01,0.01,0.03
21.493265867233276,-0.03,0.01,-0.01,0.03
21.506454944610596,-0.02,0.01,0.0,0.02
21.51488971710205,-0.02,0.01,0.0,0.02
21.52522087097168,-0.01,0.0,0.0,0.01
21.535574913024902,-0.02,0.0,0.01,0.02
21.544453859329224,-0.02,0.01,0.0,0.02
21.55465793609619,-0.02,0.01,0.0,0.02
21.566205978393555,-0.02,0.01,0.01,0.02
21.57449769973755,-0.02,0.0,-0.01,0.02
21.584043979644775,-0.02,0.01,0.0,0.02
21.594173908233643,-0.02,0.01,0.0,0.02
21.604270935058594,-0.02,0.01,0.0,0.02
21.616251945495605,-0.02,0.01,-0.01,0.02
21.625276803970337,-0.02,0.01,0.0,0.02
21.636462688446045,-0.02,0.01,0.01,0.02
21.6439208984375,-0.02,0.01,0.02,0.03
21.662649869918823,-0.02,0.02,0.0,0.02
21.665112018585205,-0.02,0.0,-0.01,0.02
21.676418781280518,-0.03,0.0,0.0,0.03
21.691295862197876,-0.02,0.01,0.0,0.02
21.693130016326904,-0.02,0.0,0.0,0.02
21.703197956085205,-0.03,0.01,0.01,0.03
21.71546173095703,-0.02,0.01,0.0,0.02
21.724669933319092,-0.02,0.01,0.01,0.02
21.736867904663086,-0.02,0.02,0.0,0.02
21.743249893188477,-0.02,0.01,0.0,0.02
21.753349781036377,-0.03,0.02,0.0,0.03
21.76486301422119,-0.02,0.02,0.0,0.02
21.77478790283203,-0.02,0.0,0.01,0.02
21.787863731384277,-0.03,0.01,0.0,0.03
21.79261088371277,-0.02,0.01,0.0,0.02
21.80270767211914,-0.02,0.01,0.01,0.02
21.81439971923828,-0.02,0.01,0.0,0.02
21.823906898498535,-0.02,0.01,0.0,0.02
21.835810899734497,-0.03,0.01,0.0,0.03
21.842278003692627,-0.02,0.0,0.0,0.02
21.852393865585327,-0.02,0.02,0.01,0.03
21.864385843276978,-0.02,0.02,0.0,0.02
21.8732647895813,-0.02,0.02,0.0,0.02
21.88589096069336,-0.03,0.01,0.01,0.03
21.891762733459473,-0.03,0.01,0.0,0.03
21.901880741119385,-0.02,0.01,0.0,0.02
21.91193985939026,-0.02,0.01,0.0,0.02
21.92462682723999,-0.03,0.0,0.0,0.03
21.936978816986084,-0.02,0.01,0.0,0.02
21.94139575958252,-0.02,0.01,0.0,0.02
21.95153570175171,-0.03,0.01,0.0,0.03
21.96364688873291,-0.02,0.01,0.0,0.02
21.97244882583618,-0.02,0.01,0.0,0.02
21.984651803970337,-0.02,0.02,0.01,0.03
21.991309881210327,-0.03,0.02,0.01,0.03
22.00122380256653,-0.03,0.01,0.0,0.03
22.01310396194458,-0.03,0.01,0.01,0.03
22.02324676513672,-0.02,0.01,0.01,0.02
22.03416085243225,-0.02,0.01,0.01,0.02
22.041112899780273,-0.03,0.02,0.01,0.03
22.051270008087158,-0.02,0.01,0.01,0.02
22.06238079071045,-0.02,0.01,0.01,0.02
22.073476791381836,-0.02,0.0,0.0,0.02
22.088838815689087,-0.02,0.01,0.0,0.02
22.090404987335205,-0.03,0.01,0.0,0.03
22.100505828857422,-0.03,0.02,0.0,0.03
22.112314701080322,-0.02,0.02,0.01,0.03
22.120730876922607,-0.03,0.01,0.01,0.03
22.13096570968628,-0.02,0.0,0.01,0.02
22.1402850151062,-0.02,0.0,0.0,0.02
22.15024185180664,-0.02,0.0,0.0,0.02
22.16215682029724,-0.02,0.02,0.0,0.02
22.172576904296875,-0.03,0.02,-0.01,0.03
22.185225009918213,-0.03,0.02,0.0,0.03
22.19015598297119,-0.02,0.01,0.01,0.02
22.199699878692627,-0.02,0.0,0.0,0.02
22.211920738220215,-0.02,0.01,0.0,0.02
22.221372842788696,-0.02,0.02,0.0,0.02
22.23322296142578,-0.02,0.01,0.0,0.02
22.23967170715332,-0.02,0.01,0.01,0.02
22.249523878097534,-0.02,0.01,0.01,0.02
22.261483907699585,-0.02,0.01,0.02,0.03
22.271549701690674,-0.02,0.0,0.01,0.02
22.28416085243225,-0.02,0.01,-0.01,0.02
22.289031982421875,-0.02,0.01,0.0,0.02
22.29908800125122,-0.02,0.0,0.0,0.02
22.309032917022705,-0.02,0.01,0.0,0.02
22.32188081741333,-0.03,0.02,0.0,0.03
22.33791184425354,-0.02,0.02,0.0,0.02
22.33930778503418,-0.02,0.01,0.01,0.02
22.34867286682129,-0.02,0.01,0.0,0.02
22.358832836151123,-0.02,0.0,0.01,0.02
22.370767831802368,-0.02,0.01,0.01,0.02
22.383176803588867,-0.03,0.01,-0.01,0.03
22.388391971588135,-0.03,0.01,-0.01,0.03
22.39850378036499,-0.02,0.01,0.01,0.02
22.40889286994934,-0.03,0.01,0.0,0.03
22.42114281654358,-0.03,0.01,-0.01,0.03
22.43422794342041,-0.03,0.01,-0.01,0.03
22.43796968460083,-0.03,0.01,0.01,0.03
22.448143005371094,-0.02,0.0,0.01,0.02
22.458178997039795,-0.02,0.01,0.0,0.02
22.470146894454956,-0.02,0.02,0.0,0.02
22.481689929962158,-0.02,0.01,0.0,0.02
22.487504959106445,-0.02,0.01,0.0,0.02
22.497729778289795,-0.02,0.01,0.0,0.02
22.50972270965576,-0.03,0.01,0.0,0.03
22.51763391494751,-0.03,0.01,0.0,0.03
22.52777886390686,-0.02,0.02,0.01,0.03
22.537248849868774,-0.03,0.02,0.01,0.03
22.54778480529785,-0.02,0.01,0.0,0.02
22.559573888778687,-0.02,0.02,0.01,0.03
22.569790840148926,-0.02,0.01,0.0,0.02
22.581262826919556,-0.02,0.0,0.0,0.02
22.5868718624115,-0.02,0.0,0.0,0.02
22.59691572189331,-0.02,0.02,0.0,0.02
22.60913586616516,-0.03,0.01,0.0,0.03
22.616817951202393,-0.03,0.01,0.0,0.03
22.626786708831787,-0.02,0.02,0.0,0.02
22.636780738830566,-0.03,0.01,0.01,0.03
22.647090911865234,-0.02,0.0,0.0,0.02
22.657732009887695,-0.02,0.0,0.0,0.02
22.669006824493408,-0.03,0.01,0.0,0.03
22.683029890060425,-0.03,0.01,0.0,0.03
22.686261892318726,-0.03,0.01,0.0,0.03
22.696298837661743,-0.02,0.0,0.0,0.02
22.708358764648438,-0.02,0.01,0.0,0.02
22.717418670654297,-0.02,0.01,0.0,0.02
22.72961187362671,-0.02,0.01,0.01,0.02
22.735983848571777,-0.03,0.01,0.0,0.03
22.745889902114868,-0.03,0.01,-0.01,0.03
22.75792169570923,-0.02,0.01,0.0,0.02
22.765944004058838,-0.02,0.02,0.0,0.02
22.776095867156982,-0.02,0.01,0.0,0.02
22.785728931427002,-0.02,0.0,0.01,0.02
22.79576587677002,-0.02,0.0,0.0,0.02
22.80696201324463,-0.02,0.0,0.0,0.02
22.817612886428833,-0.02,0.01,0.0,0.02
22.832149982452393,-0.02,0.01,0.0,0.02
22.835269927978516,-0.02,0.02,0.0,0.02
22.845470905303955,-0.02,0.02,0.0,0.02
22.857539892196655,-0.02,0.01,0.0,0.02
22.865427017211914,-0.03,0.01,0.0,0.03
22.874905824661255,-0.03,0.01,-0.01,0.03
22.885042905807495,-0.02,0.01,0.0,0.02
22.896606922149658,-0.02,0.01,0.0,0.02
22.907140731811523,-0.03,0.02,0.0,0.03
22.9149968624115,-0.02,0.01,0.0,0.02
22.924577713012695,-0.02,0.01,0.01,0.02
22.934768676757812,-0.02,0.0,0.01,0.02
22.944839000701904,-0.02,0.0,0.01,0.02
22.956824779510498,-0.02,0.0,0.0,0.02
22.967099905014038,-0.03,0.01,0.0,0.03
22.980624675750732,-0.02,0.01,0.0,0.02
22.98453187942505,-0.03,0.0,0.0,0.03
22.99444890022278,-0.02,0.01,0.01,0.02
23.005730867385864,-0.02,0.01,0.01,0.02
23.01624870300293,-0.02,0.0,0.0,0.02
23.031099796295166,-0.02,0.0,0.01,0.02
23.033817768096924,-0.02,0.01,0.01,0.02
23.044052839279175,-0.02,0.02,0.0,0.02
23.054386854171753,-0.03,0.02,0.01,0.03
23.06635880470276,-0.03,0.01,0.0,0.03
23.081678867340088,-0.02,0.02,0.0,0.02
23.0832839012146,-0.03,0.0,0.0,0.03
23.093528747558594,-0.03,0.0,0.0,0.03
23.103665828704834,-0.02,0.01,0.0,0.02
23.113749980926514,-0.02,0.02,0.01,0.03
23.123127937316895,-0.03,0.02,0.01,0.03
23.133421897888184,-0.03,0.01,0.0,0.03
23.143454790115356,-0.02,0.01,0.01,0.02
23.15511178970337,-0.02,0.01,0.0,0.02
23.165395736694336,-0.03,0.01,0.01,0.03
23.179069995880127,-0.02,0.01,0.0,0.02
23.183100700378418,-0.03,0.01,0.0,0.03
23.192829847335815,-0.03,0.01,-0.01,0.03
23.205670833587646,-0.02,0.01,0.01,0.02
23.21450185775757,-0.02,0.0,0.0,0.02
23.227906703948975,-0.02,0.0,0.01,0.02
23.2322359085083,-0.02,0.0,0.01,0.02
23.242514848709106,-0.02,0.0,0.0,0.02
23.253127813339233,-0.03,0.01,0.01,0.03
23.26477575302124,-0.03,0.01,0.0,0.03
23.277596950531006,-0.03,0.01,0.01,0.03
23.282132863998413,-0.02,0.01,0.0,0.02
23.291968822479248,-0.03,0.02,0.0,0.03
23.30260181427002,-0.02,0.01,0.0,0.02
23.31375479698181,-0.02,0.0,0.0,0.02
23.32325267791748,-0.02,0.01,0.0,0.02
23.33184790611267,-0.02,0.02,0.0,0.02
23.345574855804443,-0.02,0.02,0.01,0.03
23.351670742034912,-0.02,0.01,0.0,0.02
23.36388874053955,-0.02,0.01,0.01,0.02
23.373534679412842,-0.01,0.0,0.0,0.01
23.381677865982056,-0.02,0.01,0.0,0.02
23.391567707061768,-0.03,0.0,0.0,0.03
23.401927947998047,-0.02,0.01,0.01,0.02
23.412686824798584,-0.02,0.01,0.01,0.02
23.424299716949463,-0.02,0.01,0.01,0.02
23.431478023529053,-0.02,0.0,0.01,0.02
23.441226959228516,-0.01,0.0,0.01,0.01
23.454428672790527,-0.02,0.0,0.0,0.02
23.46080493927002,-0.02,0.02,0.0,0.02
23.470902919769287,-0.03,0.02,-0.01,0.03
23.481051921844482,-0.02,0.02,0.0,0.02
23.492406845092773,-0.02,0.02,0.0,0.02
23.503588676452637,-0.03,0.02,0.01,0.03
23.51227569580078,-0.03,0.01,0.01,0.03
23.523717880249023,-0.02,0.0,0.01,0.02
23.53073787689209,-0.01,0.01,0.01,0.01
23.540782928466797,-0.02,0.01,0.01,0.02
23.553197860717773,-0.02,0.02,0.01,0.03
23.56057596206665,-0.02,0.01,0.0,0.02
23.570122718811035,-0.03,0.01,0.0,0.03
23.58050775527954,-0.02,0.0,-0.01,0.02
23.592930793762207,-0.02,0.01,0.0,0.02
23.60306167602539,-0.01,0.01,0.01,0.01
23.610195875167847,-0.02,0.01,0.01,0.02
23.61948871612549,-0.02,0.01,0.01,0.02
23.62967300415039,-0.02,0.01,0.01,0.02
23.640071868896484,-0.02,0.0,0.01,0.02
23.652740001678467,-0.01,0.02,0.01,0.02
23.660035848617554,-0.02,0.01,0.0,0.02
23.669798851013184,-0.02,0.0,0.0,0.02
23.679611682891846,-0.02,0.01,-0.01,0.02
23.692227840423584,-0.02,0.01,0.0,0.02
23.701453685760498,-0.02,0.02,0.0,0.02
23.711145877838135,-0.03,0.02,0.0,0.03
23.7225399017334,-0.03,0.01,0.0,0.03
23.729326725006104,-0.02,0.01,0.0,0.02
23.739200830459595,-0.02,0.01,0.0,0.02
23.750550746917725,-0.02,0.01,0.0,0.02
23.760942935943604,-0.02,0.01,0.01,0.02
23.77539587020874,-0.03,0.01,0.0,0.03
23.779228687286377,-0.02,0.01,-0.01,0.02
23.78847885131836,-0.02,0.01,-0.01,0.02
23.798855781555176,-0.02,0.0,-0.01,0.02
23.811152935028076,-0.02,0.02,0.0,0.02
23.823274850845337,-0.01,0.01,0.0,0.01
23.82855796813965,-0.02,0.01,0.01,0.02
23.838140964508057,-0.02,0.01,0.01,0.02
23.849726676940918,-0.02,0.01,0.01,0.02
23.861329793930054,-0.03,0.01,0.0,0.03
23.873621940612793,-0.02,0.01,0.0,0.02
23.877525806427002,-0.02,0.01,0.0,0.02
23.888144969940186,-0.01,0.01,0.01,0.01
23.898358821868896,-0.02,0.01,0.0,0.02
23.91047477722168,-0.01,0.01,0.0,0.01
23.92398190498352,-0.02,0.01,0.01,0.02
23.9274959564209,-0.02,0.01,0.0,0.02
23.937718868255615,-0.02,0.01,0.01,0.02
23.94778871536255,-0.02,0.01,0.01,0.02
23.959300994873047,-0.02,0.01,0.01,0.02
23.971946716308594,-0.02,0.01,0.01,0.02
23.977293014526367,-0.02,0.01,0.01,0.02
23.98763370513916,-0.03,0.01,-0.01,0.03
23.999794960021973,-0.02,0.01,0.0,0.02
24.00683283805847,-0.02,0.01,0.0,0.02
24.016925811767578,-0.02,0.0,0.0,0.02
24.02748990058899,-0.01,0.0,0.01,0.01
24.039470672607422,-0.01,0.01,0.0,0.01
24.04706573486328,-0.02,0.02,0.0,0.02
24.05927801132202,-0.02,0.02,0.01,0.03
24.0722758769989,-0.03,0.01,0.0,0.03
24.07663583755493,-0.02,0.01,-0.01,0.02
24.08657693862915,-0.02,0.01,0.0,0.02
24.096651792526245,-0.02,0.01,0.0,0.02
24.109230995178223,-0.01,0.01,0.0,0.01
24.124197006225586,-0.02,0.01,0.0,0.02
24.12603998184204,-0.02,0.01,0.01,0.02
24.136250019073486,-0.01,0.01,0.01,0.01
24.146625995635986,-0.02,0.01,0.0,0.02
24.15853500366211,-0.02,0.01,-0.01,0.02
24.171068906784058,-0.03,0.02,0.0,0.03
24.176031827926636,-0.03,0.03,-0.01,0.04
24.193736791610718,-0.02,0.02,0.0,0.02
24.196072816848755,-0.02,0.0,0.01,0.02
24.210509777069092,-0.02,0.0,0.01,0.02
24.221807956695557,-0.02,0.01,0.01,0.02
24.225680828094482,-0.02,0.01,0.01,0.02
24.235496997833252,-0.02,0.01,0.01,0.02
24.247654914855957,-0.02,0.01,0.0,0.02
24.255592823028564,-0.02,0.02,0.0,0.02
24.26604390144348,-0.02,0.0,-0.01,0.02
24.275349855422974,-0.01,0.0,0.0,0.01
24.285727977752686,-0.03,0.01,0.0,0.03
24.297231674194336,-0.03,0.02,0.0,0.03
24.305140018463135,-0.02,0.01,0.0,0.02
24.314637899398804,-0.02,0.01,0.0,0.02
24.32499384880066,-0.01,0.01,0.0,0.01
24.338231801986694,-0.02,0.0,0.01,0.02
24.345799922943115,-0.02,0.01,0.01,0.02
24.35686492919922,-0.02,0.0,0.0,0.02
24.36874294281006,-0.02,0.01,-0.01,0.02
24.374406814575195,-0.02,0.01,-0.01,0.02
24.38457179069519,-0.02,0.01,0.0,0.02
24.39649987220764,-0.02,0.01,0.01,0.02
24.404982805252075,-0.02,0.01,0.01,0.02
24.417844772338867,-0.02,0.01,0.01,0.02
24.424433708190918,-0.01,0.0,0.01,0.01
24.435546875,-0.01,0.0,0.01,0.01
24.44599676132202,-0.02,0.01,0.01,0.02
24.454216957092285,-0.03,0.02,0.01,0.03
24.463656902313232,-0.02,0.02,0.01,0.03
24.473930835723877,-0.02,0.02,0.01,0.03
24.484315872192383,-0.02,0.01,0.0,0.02
24.49620485305786,-0.03,0.0,0.0,0.03
24.50620174407959,-0.02,0.0,-0.01,0.02
24.521299839019775,-0.02,0.0,0.0,0.02
24.523202896118164,-0.02,0.01,0.0,0.02
24.533419847488403,-0.02,0.02,0.01,0.03
24.545416831970215,-0.02,0.01,0.01,0.02
24.553409814834595,-0.02,0.0,0.0,0.02
24.56342601776123,-0.02,0.0,0.0,0.02
24.57349181175232,-0.02,0.01,0.0,0.02
24.58520793914795,-0.02,0.02,0.0,0.02
24.594804763793945,-0.02,0.01,0.0,0.02
24.604193687438965,-0.02,0.01,0.0,0.02
24.617785930633545,-0.03,0.01,0.0,0.03
24.62287998199463,-0.02,0.01,0.01,0.02
24.63242769241333,-0.02,0.01,0.01,0.02
24.645123958587646,-0.02,-0.01,0.0,0.02
24.654725790023804,-0.01,0.0,0.0,0.01
24.666324853897095,-0.02,0.01,0.01,0.02
24.672497749328613,-0.02,0.01,0.0,0.02
24.682921886444092,-0.02,0.02,-0.01,0.03
24.694661855697632,-0.02,0.01,0.0,0.02
24.702308893203735,-0.02,0.01,0.01,0.02
24.711927890777588,-0.02,0.01,0.0,0.02
24.72219681739807,-0.02,0.0,0.0,0.02
24.7320818901062,-0.01,0.0,0.01,0.01
24.743910789489746,-0.01,0.01,0.0,0.01
24.754186868667603,-0.02,0.02,0.0,0.02
24.765015840530396,-0.02,0.01,0.01,0.02
24.771745681762695,-0.02,0.01,0.0,0.02
24.781954765319824,-0.02,0.0,0.01,0.02
24.79399871826172,-0.03,0.01,0.0,0.03
24.80182385444641,-0.02,0.01,0.0,0.02
24.811112880706787,-0.02,0.01,0.0,0.02
24.82136297225952,-0.02,0.01,0.0,0.02
24.83141279220581,-0.02,0.01,0.0,0.02
24.843466758728027,-0.02,0.0,0.01,0.02
24.85332989692688,-0.02,-0.01,0.01,0.02
24.867496967315674,-0.02,-0.01,0.0,0.02
24.871086835861206,-0.02,0.0,0.0,0.02
24.88092589378357,-0.02,0.01,0.0,0.02
24.892327785491943,-0.02,0.01,0.0,0.02
24.902145862579346,-0.02,0.01,0.0,0.02
24.92039680480957,-0.02,0.01,0.01,0.02
24.9214129447937,-0.02,0.01,0.01,0.02
24.93243384361267,-0.02,0.01,0.0,0.02
24.94066882133484,-0.02,0.01,0.0,0.02
24.952757835388184,-0.02,0.02,0.0,0.02
24.964906692504883,-0.02,0.01,0.0,0.02
24.9703688621521,-0.03,0.01,0.0,0.03
24.980309009552002,-0.02,0.01,0.01,0.02
24.99282169342041,-0.02,0.02,0.0,0.02
25.002054691314697,-0.02,0.01,0.01,0.02
25.01557493209839,-0.03,0.01,0.01,0.03
25.01961088180542,-0.03,0.01,0.01,0.03
25.030122756958008,-0.02,0.0,0.0,0.02
25.040350914001465,-0.02,0.01,-0.01,0.02
25.0511417388916,-0.02,0.01,-0.01,0.02
25.065414905548096,-0.02,0.01,0.0,0.02
25.06948685646057,-0.02,0.0,0.0,0.02
25.079527854919434,-0.02,0.0,0.01,0.02
25.090091705322266,-0.01,0.01,0.01,0.01
25.102213859558105,-0.02,0.01,0.0,0.02
25.11330485343933,-0.02,0.01,0.01,0.02
25.119367837905884,-0.02,0.02,0.0,0.02
25.12923002243042,-0.02,0.02,-0.01,0.03
25.141568899154663,-0.03,0.0,0.0,0.03
25.150791883468628,-0.02,0.01,0.0,0.02
25.16412878036499,-0.02,0.0,0.0,0.02
25.168577671051025,-0.02,0.02,0.0,0.02
25.178846836090088,-0.02,0.01,0.01,0.02
25.18932294845581,-0.02,0.0,0.0,0.02
25.19960880279541,-0.02,0.0,0.0,0.02
25.21086072921753,-0.02,0.01,0.0,0.02
25.218418836593628,-0.02,0.01,0.0,0.02
25.228477001190186,-0.02,0.01,0.0,0.02
25.240641832351685,-0.02,0.01,-0.01,0.02
25.24831771850586,-0.02,0.01,0.01,0.02
25.258394718170166,-0.02,0.01,0.0,0.02
25.26847267150879,-0.03,0.02,0.01,0.03
25.27870273590088,-0.02,0.0,0.0,0.02
25.29031801223755,-0.02,0.0,0.01,0.02
25.2981538772583,-0.02,0.01,0.0,0.02
25.307616710662842,-0.02,0.01,0.0,0.02
25.317949771881104,-0.03,0.02,0.0,0.03
25.329662799835205,-0.03,0.01,0.0,0.03
25.33875584602356,-0.03,0.01,0.0,0.03
25.350483894348145,-0.02,0.01,0.01,0.02
25.363831996917725,-0.02,0.01,0.01,0.02
25.36758279800415,-0.02,0.01,0.01,0.02
25.37762975692749,-0.02,0.0,0.02,0.02
25.390236854553223,-0.01,0.01,0.0,0.01
25.397620677947998,-0.01,0.02,-0.01,0.02
25.408127784729004,-0.02,0.01,0.0,0.02
25.41690182685852,-0.02,0.01,0.0,0.02
25.427493810653687,-0.02,0.02,0.01,0.03
25.439639806747437,-0.01,0.02,-0.01,0.02
25.447237014770508,-0.02,0.01,-0.01,0.02
25.45680284500122,-0.03,0.01,0.0,0.03
25.46685481071472,-0.02,0.01,0.01,0.02
25.476549863815308,-0.02,0.02,0.01,0.03
25.48870587348938,-0.02,0.01,0.0,0.02
25.49846386909485,-0.02,0.01,0.01,0.02
25.512767791748047,-0.02,0.01,0.01,0.02
25.516387939453125,-0.02,0.01,0.01,0.02
25.526463985443115,-0.01,0.01,0.0,0.01
25.536496877670288,-0.02,0.01,0.0,0.02
25.54851770401001,-0.02,0.01,-0.01,0.02
25.56088399887085,-0.02,0.01,-0.01,0.02
25.566059827804565,-0.02,0.01,0.0,0.02
25.576282024383545,-0.02,0.0,0.0,0.02
25.58802580833435,-0.02,0.01,0.0,0.02
25.596985816955566,-0.02,0.01,0.0,0.02
25.610527992248535,-0.02,0.01,0.0,0.02
25.615676879882812,-0.02,0.02,0.0,0.02
25.62570095062256,-0.02,0.01,0.0,0.02
25.63809585571289,-0.03,0.01,0.0,0.03
25.647003889083862,-0.03,0.01,0.01,0.03
25.660268783569336,-0.02,0.0,0.01,0.02
25.665384769439697,-0.02,0.01,0.0,0.02
25.675383806228638,-0.02,0.01,0.01,0.02
25.68547773361206,-0.01,0.01,0.01,0.01
25.6974139213562,-0.01,0.01,0.0,0.01
25.709561824798584,-0.02,0.01,0.01,0.02
25.714903831481934,-0.02,0.01,0.0,0.02
25.72496485710144,-0.02,0.01,0.0,0.02
25.73687481880188,-0.02,0.01,0.01,0.02
25.746957778930664,-0.02,0.02,0.0,0.02
25.759533882141113,-0.02,0.01,0.01,0.02
25.76451086997986,-0.02,0.01,0.01,0.02
25.77468180656433,-0.02,0.01,0.01,0.02
25.786032676696777,-0.02,0.01,0.01,0.02
25.79670476913452,-0.01,0.01,0.01,0.01
25.813480854034424,-0.01,0.01,0.01,0.01
25.814486026763916,-0.02,0.02,0.01,0.03
25.824360847473145,-0.02,0.01,0.0,0.02
25.834458827972412,-0.02,0.02,0.0,0.02
25.846537828445435,-0.02,0.01,0.01,0.02
25.86008381843567,-0.03,0.01,0.0,0.03
25.863855838775635,-0.02,0.0,0.0,0.02
25.87434196472168,-0.02,0.01,0.01,0.02
25.884000778198242,-0.02,0.01,0.01,0.02
25.895878791809082,-0.02,0.0,0.01,0.02
25.908455848693848,-0.02,0.0,0.01,0.02
25.913451671600342,-0.02,0.0,0.01,0.02
25.92398190498352,-0.02,0.01,0.0,0.02
25.93612289428711,-0.03,0.02,0.0,0.03
25.943742752075195,-0.02,0.01,0.0,0.02
25.954473972320557,-0.02,0.0,0.01,0.02
25.96333384513855,-0.02,0.01,0.01,0.02
25.974986791610718,-0.02,0.01,0.01,0.02
25.985826015472412,-0.02,0.01,0.02,0.03
25.994865894317627,-0.02,0.01,0.0,0.02
26.008102893829346,-0.02,0.01,0.0,0.02
26.01283597946167,-0.02,0.01,0.0,0.02
26.02298378944397,-0.02,0.01,0.0,0.02
26.033275842666626,-0.02,0.02,0.01,0.03
26.0451078414917,-0.02,0.01,0.01,0.02
26.062371730804443,-0.02,0.0,0.01,0.02
26.06385588645935,-0.02,0.01,0.02,0.03
26.073336839675903,-0.02,0.01,0.01,0.02
26.082834720611572,-0.02,0.02,0.01,0.03
26.09413981437683,-0.02,0.01,0.01,0.02
26.10438585281372,-0.02,0.0,0.01,0.02
26.112199783325195,-0.02,0.02,0.01,0.03
26.125065803527832,-0.03,0.02,0.0,0.03
26.13436794281006,-0.02,0.01,0.0,0.02
26.14207696914673,-0.03,0.02,0.0,0.03
26.152127742767334,-0.02,0.01,0.01,0.02
26.16180992126465,-0.02,0.01,0.0,0.02
26.173515796661377,-0.02,0.01,0.01,0.02
26.182150840759277,-0.02,0.01,0.0,0.02
26.193529844284058,-0.02,0.02,0.0,0.02
26.20730495452881,-0.02,0.01,0.0,0.02
26.211195945739746,-0.02,0.0,0.0,0.02
26.221831798553467,-0.03,0.01,0.01,0.03
26.23154878616333,-0.02,0.01,0.01,0.02
26.242816925048828,-0.02,0.01,0.0,0.02
26.2546648979187,-0.03,0.01,0.01,0.03
26.261273860931396,-0.02,0.01,0.02,0.03
26.27126693725586,-0.03,0.01,0.0,0.03
26.283442974090576,-0.02,0.01,0.01,0.02
26.292669773101807,-0.02,0.01,0.0,0.02
26.305418968200684,-0.02,0.01,0.01,0.02
26.310734748840332,-0.02,0.01,0.0,0.02
26.324481964111328,-0.02,0.01,0.0,0.02
26.33076572418213,-0.02,0.01,0.01,0.02
26.3430118560791,-0.02,0.01,0.0,0.02
26.356493949890137,-0.02,0.01,0.01,0.02
26.360535860061646,-0.02,0.01,0.02,0.03
26.375680923461914,-0.02,0.01,0.0,0.02
26.380614757537842,-0.02,0.01,0.01,0.02
26.394240856170654,-0.02,0.01,0.0,0.02
26.405728816986084,-0.02,0.01,0.01,0.02
26.410351753234863,-0.02,0.01,0.0,0.02
26.425780773162842,-0.02,0.02,0.01,0.03
26.430189847946167,-0.02,0.01,0.0,0.02
26.445080757141113,-0.02,0.0,0.01,0.02
26.458165884017944,-0.02,0.0,0.0,0.02
26.45951271057129,-0.02,0.01,0.0,0.02
26.4697048664093,-0.02,0.01,0.01,0.02
26.479984760284424,-0.02,0.01,0.0,0.02
26.492349863052368,-0.02,0.0,0.01,0.02
26.507411003112793,-0.02,0.0,0.0,0.02
26.509341716766357,-0.03,-0.01,0.0,0.03
26.519423961639404,-0.03,0.01,0.01,0.03
26.529473781585693,-0.02,0.01,0.01,0.02
26.54203701019287,-0.02,0.0,0.0,0.02
26.553302764892578,-0.02,0.01,0.0,0.02
26.559134006500244,-0.02,0.01,0.01,0.02
26.568928718566895,-0.02,0.01,0.0,0.02
26.580249786376953,-0.02,0.01,0.0,0.02
26.59037494659424,-0.02,0.01,0.0,0.02
26.606576919555664,-0.02,0.01,0.01,0.02
26.60845184326172,-0.02,0.01,0.01,0.02
26.618656873703003,-0.02,0.02,-0.01,0.03
26.63089370727539,-0.02,0.01,0.01,0.02
26.638324737548828,-0.02,0.01,0.01,0.02
26.648406982421875,-0.02,0.01,0.0,0.02
26.65888285636902,-0.02,0.01,0.01,0.02
26.669777870178223,-0.02,0.01,0.01,0.02
26.680120944976807,-0.02,0.01,0.0,0.02
26.690327882766724,-0.03,0.01,0.0,0.03
26.70146369934082,-0.02,0.01,0.0,0.02
26.708061695098877,-0.03,0.01,0.0,0.03
26.71805191040039,-0.02,0.02,0.0,0.02
26.72838282585144,-0.02,0.01,0.01,0.02
26.740296840667725,-0.02,0.01,0.0,0.02
26.753435850143433,-0.02,0.02,0.0,0.02
26.75761890411377,-0.02,0.01,0.0,0.02
26.767544746398926,-0.03,0.01,0.0,0.03
26.780025959014893,-0.02,0.01,0.01,0.02
26.789142847061157,-0.02,0.01,0.0,0.02
26.802613735198975,-0.02,0.0,0.0,0.02
26.807168006896973,-0.03,0.01,0.0,0.03
26.81724977493286,-0.02,0.01,0.01,0.02
26.827372789382935,-0.02,0.01,0.01,0.02
26.838289737701416,-0.02,0.01,0.01,0.02
26.855326890945435,-0.03,0.01,0.01,0.03
26.856956005096436,-0.02,0.01,0.0,0.02
26.86689782142639,-0.03,0.02,0.0,0.03
26.87870693206787,-0.03,0.01,0.01,0.03
26.88902187347412,-0.02,0.01,0.01,0.02
26.901854991912842,-0.02,0.01,0.0,0.02
26.90675187110901,-0.02,0.01,0.01,0.02
26.916595935821533,-0.01,0.01,0.01,0.01
26.926908016204834,-0.02,0.01,0.01,0.02
26.93864393234253,-0.02,0.01,0.0,0.02
26.95241069793701,-0.03,0.01,0.01,0.03
26.956259727478027,-0.03,0.01,0.01,0.03
26.966243743896484,-0.02,0.0,0.0,0.02
26.978583812713623,-0.03,0.01,0.0,0.03
26.988210678100586,-0.02,0.01,0.01,0.02
26.999791860580444,-0.02,0.01,0.01,0.02
27.006155967712402,-0.02,0.01,0.0,0.02
27.01600694656372,-0.02,0.01,0.0,0.02
27.02806568145752,-0.02,0.01,0.01,0.02
27.037841796875,-0.02,0.01,0.0,0.02
27.051971912384033,-0.03,0.01,0.0,0.03
27.055691719055176,-0.02,0.01,0.0,0.02
27.06548285484314,-0.03,0.02,0.0,0.03
27.076951026916504,-0.03,0.02,0.0,0.03
27.087962865829468,-0.02,0.01,0.01,0.02
27.10065269470215,-0.02,0.01,0.0,0.02
27.105448722839355,-0.02,0.01,0.01,0.02
27.115450859069824,-0.02,0.0,0.01,0.02
27.12599277496338,-0.02,0.0,0.01,0.02
27.136590003967285,-0.02,0.0,0.01,0.02
27.15035390853882,-0.02,0.01,-0.01,0.02
27.15491485595703,-0.02,0.01,-0.01,0.02
27.16482186317444,-0.02,0.01,0.0,0.02
27.176240921020508,-0.02,0.01,0.0,0.02
27.18620491027832,-0.02,0.01,0.0,0.02
27.20015788078308,-0.02,0.0,0.0,0.02
27.20449686050415,-0.03,0.0,0.01,0.03
27.214478969573975,-0.03,0.01,0.0,0.03
27.22526502609253,-0.03,0.01,0.0,0.03
27.236607789993286,-0.02,0.01,0.0,0.02
27.25068473815918,-0.02,0.0,0.0,0.02
27.254086017608643,-0.02,0.02,0.01,0.03
27.264155864715576,-0.02,0.01,0.0,0.02
27.274657726287842,-0.02,0.01,0.0,0.02
27.285156726837158,-0.02,0.01,-0.01,0.02
27.298581838607788,-0.02,0.01,0.0,0.02
27.30410385131836,-0.03,0.02,0.0,0.03
27.31438684463501,-0.02,0.01,0.01,0.02
27.32482385635376,-0.02,0.01,0.01,0.02
27.335880756378174,-0.02,0.0,0.0,0.02
27.349644899368286,-0.02,0.01,0.0,0.02
27.353519916534424,-0.02,0.01,0.0,0.02
27.363409996032715,-0.02,0.01,0.01,0.02
27.375358819961548,-0.02,0.02,0.01,0.03
27.38339376449585,-0.02,0.01,0.0,0.02
27.393831729888916,-0.02,0.01,0.0,0.02
27.403185844421387,-0.02,0.0,0.0,0.02
27.415385723114014,-0.02,0.01,0.0,0.02
27.42397689819336,-0.02,0.01,0.0,0.02
27.435235023498535,-0.02,0.01,0.01,0.02
27.44902801513672,-0.02,0.01,0.0,0.02
27.452861785888672,-0.03,0.0,0.0,0.03
27.462803840637207,-0.02,0.01,0.0,0.02
27.472855806350708,-0.02,0.01,-0.01,0.02
27.48374581336975,-0.02,0.01,0.0,0.02
27.493446826934814,-0.03,0.01,0.01,0.03
27.50235891342163,-0.03,0.0,0.01,0.03
27.5149188041687,-0.02,0.01,0.0,0.02
27.52353000640869,-0.02,0.01,0.0,0.02
27.53410291671753,-0.02,0.01,0.01,0.02
27.550063848495483,-0.02,0.01,0.0,0.02
27.552023887634277,-0.02,0.02,0.0,0.02
27.562058925628662,-0.02,0.01,0.0,0.02
27.57217502593994,-0.03,0.01,0.01,0.03
27.584702014923096,-0.02,0.02,0.01,0.03
27.59855890274048,-0.02,0.01,0.01,0.02
27.601378917694092,-0.02,0.01,0.01,0.02
27.611670970916748,-0.02,0.01,0.01,0.02
27.621863842010498,-0.03,0.01,0.01,0.03
27.63340997695923,-0.02,0.01,0.01,0.02
27.646721839904785,-0.02,0.01,0.01,0.02
27.651448726654053,-0.03,0.01,0.0,0.03
27.661337852478027,-0.03,0.01,-0.01,0.03
27.6719069480896,-0.02,0.02,0.0,0.02
27.682185888290405,-0.02,0.02,0.0,0.02
27.69661784172058,-0.02,0.0,0.0,0.02
27.700891971588135,-0.02,0.01,0.01,0.02
27.711113929748535,-0.02,0.01,0.0,0.02
27.72148585319519,-0.03,0.0,0.0,0.03
27.733619689941406,-0.02,0.01,0.01,0.02
27.746240854263306,-0.02,0.01,0.01,0.02
27.750489711761475,-0.02,0.01,0.01,0.02
27.760679721832275,-0.02,0.0,0.01,0.02
27.77107572555542,-0.02,0.02,0.0,0.02
27.782280921936035,-0.02,0.01,0.0,0.02
27.793107986450195,-0.02,0.01,0.0,0.02
27.800296783447266,-0.02,0.01,0.01,0.02
27.81067991256714,-0.02,0.01,0.0,0.02
27.82234001159668,-0.02,0.01,0.01,0.02
27.83178687095642,-0.02,0.01,0.0,0.02
27.844810009002686,-0.02,0.01,0.0,0.02
27.849690914154053,-0.02,0.01,0.0,0.02
27.859994888305664,-0.02,0.01,0.01,0.02
27.87253475189209,-0.01,0.01,0.0,0.01
27.881374835968018,-0.03,0.01,0.0,0.03
27.894474983215332,-0.02,0.01,0.0,0.02
27.89955186843872,-0.03,0.01,0.0,0.03
27.90946102142334,-0.02,0.0,0.0,0.02
27.9196298122406,-0.02,0.01,0.0,0.02
27.931140899658203,-0.02,0.01,0.0,0.02
27.94655179977417,-0.01,0.01,0.0,0.01
27.949155807495117,-0.02,0.01,0.01,0.02
27.95936393737793,-0.03,0.01,-0.01,0.03
27.96953296661377,-0.02,0.01,0.0,0.02
27.98166584968567,-0.01,0.0,0.0,0.01
27.993714809417725,-0.02,0.0,0.0,0.02
27.99880599975586,-0.02,0.01,0.0,0.02
28.00887680053711,-0.02,0.01,0.0,0.02
28.019147872924805,-0.01,0.01,-0.01,0.01
28.029318809509277,-0.02,0.01,0.0,0.02
28.040555000305176,-0.02,0.02,0.0,0.02
28.04873490333557,-0.02,0.01,0.01,0.02
28.058597803115845,-0.02,0.0,0.0,0.02
28.070539951324463,-0.02,0.0,0.01,0.02
28.080562829971313,-0.01,0.01,0.01,0.01
28.09532070159912,-0.02,0.01,0.0,0.02
28.098293781280518,-0.02,0.01,0.01,0.02
28.10824179649353,-0.02,0.01,0.0,0.02
28.118475914001465,-0.03,0.0,0.0,0.03
28.13078498840332,-0.02,0.02,0.0,0.02
28.146824836730957,-0.01,0.02,0.01,0.02
28.148211002349854,-0.02,0.01,0.01,0.02
28.158301830291748,-0.02,0.0,0.0,0.02
28.16810178756714,-0.02,0.01,0.01,0.02
28.180070877075195,-0.02,0.01,0.0,0.02
28.19190502166748,-0.02,0.0,0.01,0.02
28.19748592376709,-0.02,0.02,0.0,0.02
28.208367824554443,-0.02,0.02,0.01,0.03
28.21982479095459,-0.02,0.01,0.01,0.02
28.22820472717285,-0.02,0.01,0.01,0.02
28.239367961883545,-0.01,0.0,0.0,0.01
28.247254848480225,-0.03,0.0,0.0,0.03
28.25776982307434,-0.02,0.01,0.0,0.02
28.270086765289307,-0.02,0.01,-0.01,0.02
28.278791904449463,-0.02,0.01,0.0,0.02
28.290421962738037,-0.02,0.01,0.0,0.02
28.296692848205566,-0.02,0.01,0.0,0.02
28.30711078643799,-0.02,0.01,0.0,0.02
28.318974018096924,-0.02,0.0,0.0,0.02
28.328096866607666,-0.02,0.02,0.0,0.02
28.33825397491455,-0.02,0.01,0.0,0.02
28.346677780151367,-0.02,0.0,0.01,0.02
28.35813570022583,-0.02,0.01,0.0,0.02
28.36646580696106,-0.02,0.01,0.0,0.02
28.378967761993408,-0.03,0.01,-0.01,0.03
28.39711570739746,-0.02,0.0,0.0,0.02
28.39875888824463,-0.03,0.01,0.0,0.03
28.406198978424072,-0.02,0.01,0.01,0.02
28.41590189933777,-0.02,0.01,0.0,0.02
28.42732286453247,-0.02,0.01,0.0,0.02
28.44064998626709,-0.02,0.01,0.0,0.02
28.44554376602173,-0.02,0.01,0.0,0.02
28.45804500579834,-0.02,0.0,0.0,0.02
28.466973781585693,-0.02,0.0,0.01,0.02
28.47740888595581,-0.02,0.0,0.0,0.02
28.490357875823975,-0.02,0.01,0.0,0.02
28.495535850524902,-0.02,0.02,0.0,0.02
28.50557589530945,-0.02,0.01,0.0,0.02
28.517579793930054,-0.01,0.01,0.01,0.01
28.526745796203613,-0.01,0.01,0.0,0.01
28.539580821990967,-0.02,0.0,0.0,0.02
28.5449538230896,-0.02,0.0,0.01,0.02
28.55522584915161,-0.02,0.0,0.0,0.02
28.565215826034546,-0.02,0.01,0.0,0.02
28.5764479637146,-0.02,0.01,0.0,0.02
28.59510087966919,-0.02,0.01,0.0,0.02
28.596017837524414,-0.02,0.0,0.01,0.02
28.60480284690857,-0.02,0.0,0.01,0.02
28.61492085456848,-0.02,0.01,0.01,0.02
28.627213954925537,-0.01,0.01,0.0,0.01
28.638765811920166,-0.02,0.0,0.0,0.02
28.64427900314331,-0.02,0.01,0.0,0.02
28.654446840286255,-0.02,0.02,0.0,0.02
28.666380882263184,-0.02,0.01,0.01,0.02
28.675880908966064,-0.01,0.01,0.01,0.01
28.686742782592773,-0.01,0.01,0.01,0.01
28.694206714630127,-0.02,0.01,0.0,0.02
28.704582691192627,-0.03,0.0,0.0,0.03
28.71586275100708,-0.02,0.01,-0.01,0.02
28.725510835647583,-0.02,0.01,0.0,0.02
28.73737096786499,-0.02,0.01,-0.01,0.02
28.74359893798828,-0.02,0.01,0.01,0.02
28.760573863983154,-0.03,0.01,0.01,0.03
28.76614785194397,-0.02,0.01,0.0,0.02
28.773518800735474,-0.01,0.01,0.01,0.01
28.78390383720398,-0.02,0.0,0.0,0.02
28.793445825576782,-0.03,0.0,0.01,0.03
28.803433895111084,-0.02,0.01,0.0,0.02
28.815553903579712,-0.03,0.02,0.0,0.03
28.825204849243164,-0.02,0.01,0.01,0.02
28.83875584602356,-0.01,0.01,0.0,0.01
28.84282684326172,-0.02,0.01,0.0,0.02
28.8580379486084,-0.02,0.01,0.01,0.02
28.863114833831787,-0.02,0.01,0.0,0.02
28.87551188468933,-0.01,0.0,0.0,0.01
28.887948989868164,-0.02,0.01,0.0,0.02
28.892748832702637,-0.01,0.0,0.01,0.01
28.9026198387146,-0.02,0.0,0.0,0.02
28.91296672821045,-0.03,0.01,0.0,0.03
28.92557382583618,-0.02,0.0,-0.01,0.02
28.93698787689209,-0.02,0.01,0.01,0.02
28.942296981811523,-0.01,0.01,0.0,0.01
28.952334880828857,-0.03,0.02,0.0,0.03
28.96449375152588,-0.02,0.01,0.0,0.02
28.973756790161133,-0.02,0.0,0.0,0.02
28.986010789871216,-0.02,0.01,0.0,0.02
28.992087841033936,-0.02,0.0,-0.01,0.02
29.01198673248291,-0.02,0.01,0.0,0.02
29.01683473587036,-0.03,0.01,0.0,0.03
29.021609783172607,-0.02,0.02,0.0,0.02
29.03206181526184,-0.01,0.01,0.0,0.01
29.04179096221924,-0.01,0.0,-0.01,0.01
29.051548957824707,-0.02,0.0,0.0,0.02
29.064018726348877,-0.01,0.01,0.01,0.01
29.07156801223755,-0.02,0.01,0.0,0.02
29.082345962524414,-0.02,0.01,0.0,0.02
29.09137988090515,-0.03,0.01,0.0,0.03
29.10160779953003,-0.03,0.0,0.01,0.03
29.113624811172485,-0.02,0.01,0.0,0.02
29.122304916381836,-0.02,0.01,0.0,0.02
29.135103702545166,-0.03,0.01,0.0,0.03
29.14112377166748,-0.02,0.01,0.01,0.02
29.150709867477417,-0.02,0.01,0.0,0.02
29.162948846817017,-0.02,0.0,0.01,0.02
29.17274570465088,-0.02,0.02,0.0,0.02
29.185597896575928,-0.01,0.01,0.01,0.01
29.19057583808899,-0.02,0.01,0.0,0.02
29.200510025024414,-0.01,0.0,0.0,0.01
29.21274185180664,-0.02,0.01,0.0,0.02
29.220215797424316,-0.02,0.01,0.01,0.02
29.230289936065674,-0.02,0.01,0.0,0.02
29.240795850753784,-0.02,0.02,0.0,0.02
29.252760887145996,-0.01,0.01,0.0,0.01
29.26176881790161,-0.02,0.01,0.0,0.02
29.2723069190979,-0.02,0.0,-0.01,0.02
29.2857768535614,-0.02,0.01,-0.01,0.02
29.29011297225952,-0.03,0.01,0.01,0.03
29.299957752227783,-0.02,0.01,0.02,0.03
29.312088012695312,-0.02,0.0,0.0,0.02
29.321411848068237,-0.02,0.0,0.01,0.02
29.334941864013672,-0.02,0.0,0.01,0.02
29.339797973632812,-0.02,0.0,-0.01,0.02
29.349583864212036,-0.02,0.01,0.0,0.02
29.35980486869812,-0.01,0.0,0.0,0.01
29.372776985168457,-0.02,0.01,-0.01,0.02
29.387983798980713,-0.02,0.0,0.0,0.02
29.38936996459961,-0.02,0.01,0.01,0.02
29.408488750457764,-0.02,0.01,0.01,0.02
29.409307956695557,-0.02,0.01,0.0,0.02
29.419265747070312,-0.02,0.0,0.0,0.02
29.429821968078613,-0.02,0.01,0.0,0.02
29.438918828964233,-0.02,0.02,0.0,0.02
29.448940753936768,-0.02,0.02,0.02,0.03
29.46097683906555,-0.02,0.01,0.0,0.02
29.470916748046875,-0.01,0.01,0.0,0.01
29.48523187637329,-0.02,0.01,0.01,0.02
29.488487720489502,-0.01,0.0,0.01,0.01
29.49848985671997,-0.02,0.01,0.0,0.02
29.508712768554688,-0.02,0.0,0.0,0.02
29.520668983459473,-0.02,0.01,0.0,0.02
29.531798839569092,-0.02,0.01,0.0,0.02
29.538134813308716,-0.02,0.01,0.0,0.02
29.54789972305298,-0.02,0.02,0.0,0.02
29.56001377105713,-0.02,0.01,0.0,0.02
29.57015371322632,-0.02,0.01,-0.01,0.02
29.58492088317871,-0.02,0.0,-0.02,0.02
29.587682723999023,-0.02,0.01,-0.01,0.02
29.59773302078247,-0.02,0.02,0.01,0.03
29.60846185684204,-0.02,0.0,0.0,0.02
29.61923885345459,-0.02,0.0,0.0,0.02
29.630692958831787,-0.02,0.01,0.0,0.02
29.637398719787598,-0.02,0.01,0.0,0.02
29.64714288711548,-0.02,0.01,-0.01,0.02
29.659245014190674,-0.01,0.01,-0.01,0.01
29.669248819351196,-0.02,0.01,-0.01,0.02
29.682259798049927,-0.02,0.0,-0.01,0.02
29.68703579902649,-0.02,0.0,0.0,0.02
29.697094917297363,-0.02,0.0,0.01,0.02
29.70755386352539,-0.01,0.01,0.0,0.01
29.71849489212036,-0.01,0.01,0.0,0.01
29.732775688171387,-0.02,0.01,-0.01,0.02
29.73669195175171,-0.01,0.01,0.0,0.01
29.74653196334839,-0.01,0.0,0.0,0.01
29.758957862854004,-0.03,0.01,0.0,0.03
29.76804780960083,-0.03,0.01,0.01,0.03
29.781174898147583,-0.02,0.01,0.0,0.02
29.786448001861572,-0.02,0.02,0.01,0.03
29.796669006347656,-0.02,0.01,0.0,0.02
29.807808876037598,-0.02,0.01,0.0,0.02
29.817681789398193,-0.02,0.01,0.0,0.02
29.831942796707153,-0.02,0.01,-0.01,0.02
29.835951805114746,-0.02,0.01,0.0,0.02
29.84604287147522,-0.02,0.0,0.0,0.02
29.857724905014038,-0.02,0.0,0.0,0.02
29.86711883544922,-0.02,0.0,0.0,0.02
29.882795810699463,-0.02,0.0,0.0,0.02
29.88564968109131,-0.03,0.0,0.0,0.03
29.896050930023193,-0.03,0.01,0.01,0.03
29.907853841781616,-0.03,0.01,0.0,0.03
29.91835880279541,-0.02,0.01,-0.01,0.02
29.93181085586548,-0.01,0.0,0.01,0.01
29.935109853744507,-0.02,0.01,0.0,0.02
29.945220947265625,-0.02,0.02,0.0,0.02
29.955376863479614,-0.02,0.01,0.01,0.02
29.967434883117676,-0.02,0.0,0.01,0.02
29.9784038066864,-0.02,0.0,-0.01,0.02
29.98504090309143,-0.02,0.01,0.0,0.02
29.995001792907715,-0.02,0.0,0.0,0.02
30.00744867324829,-0.03,0.01,0.0,0.03
30.016310691833496,-0.02,0.01,0.0,0.02
30.029165744781494,-0.02,0.01,-0.01,0.02
30.03441286087036,-0.02,0.01,-0.01,0.02
30.04487681388855,-0.02,0.01,0.0,0.02
30.05640983581543,-0.02,0.01,0.0,0.02
30.067148685455322,-0.01,0.01,0.01,0.01
30.083987712860107,-0.02,0.0,0.01,0.02
30.085402011871338,-0.02,0.01,0.01,0.02
30.094196796417236,-0.02,0.01,0.0,0.02
30.104219913482666,-0.02,0.01,-0.01,0.02
30.116191864013672,-0.02,0.0,0.0,0.02
30.12923574447632,-0.01,0.01,0.0,0.01
30.133745670318604,-0.01,0.01,0.0,0.01
30.144114017486572,-0.01,0.01,0.0,0.01
30.15582799911499,-0.02,0.02,0.0,0.02
30.165352821350098,-0.02,0.01,0.0,0.02
30.18040680885315,-0.02,0.01,0.0,0.02
30.183425903320312,-0.01,0.02,0.0,0.02
30.193676948547363,-0.02,0.01,0.01,0.02
30.20375967025757,-0.02,0.01,-0.01,0.02
30.21573781967163,-0.02,0.01,0.0,0.02
30.231834888458252,-0.02,0.01,-0.01,0.02
30.23330283164978,-0.02,0.01,0.0,0.02
30.24278974533081,-0.02,0.01,0.0,0.02
30.2531099319458,-0.02,0.01,0.0,0.02
30.26434087753296,-0.02,0.01,0.0,0.02
30.27847385406494,-0.02,0.02,0.0,0.02
30.282912731170654,-0.01,0.0,0.0,0.01
30.292704820632935,-0.02,0.0,0.01,0.02
30.30286478996277,-0.02,0.01,0.01,0.02
30.314754962921143,-0.02,0.01,0.0,0.02
30.32948875427246,-0.02,0.01,0.0,0.02
30.332205772399902,-0.02,0.01,0.0,0.02
30.342625856399536,-0.01,0.0,0.0,0.01
30.35376501083374,-0.01,0.0,0.0,0.01
30.364499807357788,-0.02,0.01,0.0,0.02
30.3793728351593,-0.01,0.0,0.0,0.01
30.381906986236572,-0.01,0.02,-0.01,0.02
30.392348766326904,-0.02,0.01,0.0,0.02
30.402684688568115,-0.01,0.0,0.0,0.01
30.41339683532715,-0.02,0.0,0.0,0.02
30.424351692199707,-0.02,0.01,0.01,0.02
30.431606769561768,-0.02,0.01,0.0,0.02
30.441844940185547,-0.02,0.01,0.01,0.02
30.452866792678833,-0.02,0.01,0.01,0.02
30.46369981765747,-0.03,0.01,-0.01,0.03
30.479228019714355,-0.03,0.01,0.01,0.03
30.481328010559082,-0.02,0.01,-0.01,0.02
30.491214752197266,-0.01,0.01,0.0,0.01
30.50441288948059,-0.02,0.01,0.01,0.02
30.51154589653015,-0.01,0.01,-0.01,0.01
30.522472858428955,-0.02,0.01,0.01,0.02
30.531239986419678,-0.02,0.02,0.01,0.03
30.5417799949646,-0.03,0.01,0.0,0.03
30.55362892150879,-0.02,0.01,0.0,0.02
30.561211824417114,-0.01,0.02,0.0,0.02
