time,ax,ay,az,atotal
0.037740230560302734,0.03,-0.03,-0.22,0.22
0.03827404975891113,0.08,-0.05,-0.41,0.42
0.038645029067993164,-0.06,0.0,0.15,0.16
0.039008140563964844,-0.05,0.01,0.14,0.14
0.03936409950256348,0.03,-0.01,-0.17,0.17
0.04952812194824219,-0.01,0.01,-0.04,0.04
0.06000709533691406,-0.03,0.0,0.04,0.05
0.07030105590820312,0.01,-0.01,-0.03,0.03
0.08088016510009766,-0.03,-0.01,-0.02,0.03
0.08986806869506836,-0.01,-0.02,-0.05,0.05
0.10040616989135742,-0.02,-0.02,0.0,0.02
0.11047601699829102,-0.01,-0.01,-0.03,0.03
0.12116193771362305,-0.01,-0.01,-0.06,0.06
0.13053417205810547,-0.01,0.0,0.0,0.01
0.1409749984741211,-0.01,0.0,0.02,0.02
0.15137815475463867,0.0,-0.02,-0.06,0.06
0.1611940860748291,-0.01,0.0,-0.02,0.02
0.17179608345031738,-0.02,0.0,-0.02,0.02
0.18105506896972656,-0.02,0.0,-0.02,0.02
0.19135618209838867,-0.02,-0.01,-0.03,0.03
0.20098590850830078,-0.02,0.0,0.0,0.02
0.21067404747009277,-0.01,0.0,-0.02,0.02
0.2212672233581543,-0.01,-0.01,-0.03,0.03
0.2307748794555664,0.0,-0.01,-0.02,0.02
0.2408919334411621,-0.02,0.0,-0.01,0.02
0.2495880126953125,-0.01,-0.01,-0.04,0.04
0.26064395904541016,-0.02,-0.01,-0.02,0.03
0.2720210552215576,-0.02,0.0,-0.01,0.02
0.2805490493774414,-0.02,0.0,-0.03,0.03
0.29041004180908203,-0.02,0.0,-0.03,0.03
0.30030393600463867,-0.01,0.01,-0.01,0.01
0.3102710247039795,-0.01,0.0,-0.02,0.02
0.3202230930328369,-0.01,0.0,-0.03,0.03
0.33028101921081543,-0.02,-0.01,-0.01,0.02
0.34018516540527344,-0.01,-0.01,-0.02,0.02
0.349992036819458,-0.01,-0.01,-0.04,0.04
0.3600430488586426,-0.02,-0.01,-0.03,0.03
0.37000107765197754,-0.02,0.0,-0.01,0.02
0.379925012588501,-0.02,0.0,-0.01,0.02
0.38979506492614746,-0.01,0.0,-0.02,0.02
0.3998589515686035,-0.01,-0.01,-0.03,0.03
0.4093630313873291,-0.01,-0.01,-0.02,0.02
0.41980600357055664,-0.01,-0.02,-0.03,0.03
0.4296889305114746,-0.02,-0.01,-0.01,0.02
0.4394359588623047,-0.02,0.0,-0.02,0.02
0.4494318962097168,-0.01,-0.01,-0.03,0.03
0.459367036819458,-0.01,0.0,-0.01,0.01
0.46915388107299805,-0.01,0.0,-0.02,0.02
0.4789562225341797,-0.01,0.0,-0.02,0.02
0.489016056060791,-0.01,0.0,-0.02,0.02
0.4990980625152588,-0.01,-0.01,-0.03,0.03
0.5089890956878662,-0.02,0.0,-0.03,0.03
0.5192551612854004,-0.02,-0.01,-0.02,0.03
0.5288219451904297,-0.01,0.0,-0.02,0.02
0.5387711524963379,-0.01,0.0,-0.03,0.03
0.5487060546875,-0.02,-0.01,-0.03,0.03
0.5586361885070801,-0.01,-0.01,-0.03,0.03
0.5689711570739746,-0.01,0.0,-0.02,0.02
0.578510046005249,-0.02,0.0,-0.03,0.03
0.5882868766784668,-0.02,-0.01,-0.02,0.03
0.5983760356903076,-0.01,0.0,-0.02,0.02
0.6084380149841309,-0.02,0.0,-0.01,0.02
0.6183090209960938,-0.02,-0.01,-0.02,0.03
0.6280269622802734,-0.01,0.0,-0.03,0.03
0.638275146484375,-0.01,0.0,-0.02,0.02
0.6481099128723145,-0.02,-0.01,-0.02,0.03
0.6579110622406006,-0.01,0.0,-0.01,0.01
0.6679980754852295,-0.02,0.0,-0.03,0.03
0.6777539253234863,-0.01,-0.01,-0.03,0.03
0.688060998916626,-0.01,-0.01,-0.01,0.01
0.6976299285888672,-0.01,-0.01,-0.02,0.02
0.7075591087341309,-0.02,-0.01,-0.02,0.03
0.717505931854248,-0.01,0.0,-0.02,0.02
0.7276029586791992,-0.01,-0.01,-0.02,0.02
0.7375302314758301,-0.01,-0.01,-0.03,0.03
0.7470579147338867,-0.01,-0.01,-0.03,0.03
0.7572140693664551,-0.02,-0.01,-0.01,0.02
0.7671041488647461,-0.01,0.0,-0.02,0.02
0.7770140171051025,-0.01,0.0,-0.02,0.02
0.7869071960449219,-0.02,0.0,-0.01,0.02
0.7970261573791504,-0.01,0.0,-0.03,0.03
0.8068780899047852,-0.01,-0.01,-0.02,0.02
0.8167719841003418,-0.02,0.0,-0.02,0.02
0.8267831802368164,-0.01,-0.01,-0.01,0.01
0.8369312286376953,-0.02,-0.01,-0.02,0.03
0.8465728759765625,-0.01,0.0,-0.03,0.03
0.8566188812255859,-0.01,0.0,-0.02,0.02
0.8665771484375,-0.01,-0.01,-0.03,0.03
0.8763461112976074,-0.01,-0.01,-0.03,0.03
0.8864190578460693,-0.01,-0.02,-0.02,0.03
0.8963541984558105,-0.01,0.0,-0.01,0.01
0.9064450263977051,-0.02,-0.01,-0.02,0.03
0.9162600040435791,-0.02,-0.01,-0.03,0.03
0.9261090755462646,-0.02,0.0,-0.02,0.02
0.9366550445556641,-0.01,0.0,-0.02,0.02
0.9458751678466797,-0.02,-0.01,-0.03,0.03
0.955787181854248,-0.02,0.0,-0.02,0.02
0.9659140110015869,-0.01,-0.01,-0.02,0.02
0.9757089614868164,-0.01,-0.01,-0.03,0.03
0.9855952262878418,-0.02,0.0,-0.03,0.03
0.9956190586090088,-0.01,-0.01,-0.04,0.04
1.0055060386657715,-0.02,-0.01,-0.04,0.04
1.0155019760131836,-0.02,-0.01,-0.02,0.03
1.0252771377563477,-0.01,-0.01,-0.03,0.03
1.0353240966796875,-0.02,-0.01,-0.03,0.03
1.045219898223877,-0.02,-0.01,-0.03,0.03
1.0551950931549072,-0.01,0.0,-0.02,0.02
1.0650930404663086,-0.01,-0.01,-0.02,0.02
1.0750689506530762,-0.02,-0.01,-0.02,0.03
1.0851349830627441,-0.01,-0.01,-0.02,0.02
1.0948851108551025,-0.01,0.0,-0.03,0.03
1.104741096496582,-0.02,-0.01,-0.02,0.03
1.1147642135620117,-0.01,0.0,-0.03,0.03
1.1246120929718018,-0.02,-0.01,-0.03,0.03
1.134645938873291,-0.02,-0.01,-0.01,0.02
1.144313097000122,-0.02,-0.01,-0.02,0.03
1.1544640064239502,-0.02,-0.01,-0.03,0.03
1.1643519401550293,-0.02,-0.01,-0.01,0.02
1.1744980812072754,-0.01,-0.01,-0.02,0.02
1.1842870712280273,-0.01,0.0,-0.02,0.02
1.1941289901733398,-0.01,0.0,-0.02,0.02
1.205038070678711,-0.02,-0.01,-0.03,0.03
1.2142770290374756,-0.01,0.0,-0.01,0.01
1.224170207977295,-0.02,0.0,-0.01,0.02
1.2342529296875,-0.02,0.0,-0.03,0.03
1.2439079284667969,-0.02,0.0,-0.03,0.03
1.2538928985595703,-0.01,-0.01,-0.02,0.02
1.2636940479278564,-0.02,-0.01,-0.02,0.03
1.27360200881958,-0.02,-0.01,-0.02,0.03
1.283407211303711,-0.01,0.0,-0.02,0.02
1.2934200763702393,-0.02,-0.01,-0.02,0.03
1.3034210205078125,-0.02,-0.01,-0.02,0.03
1.313209056854248,-0.02,0.0,-0.02,0.02
1.3231220245361328,-0.01,-0.01,-0.02,0.02
1.3330202102661133,-0.02,0.0,-0.01,0.02
1.3433361053466797,-0.02,-0.01,-0.02,0.03
1.3533689975738525,-0.02,0.0,-0.02,0.02
1.3630828857421875,-0.01,0.0,-0.02,0.02
1.37272310256958,-0.02,0.0,-0.02,0.02
1.3828330039978027,-0.01,0.0,-0.03,0.03
1.392914056777954,-0.01,0.0,-0.03,0.03
1.4025659561157227,-0.02,0.0,-0.03,0.03
1.4127750396728516,-0.02,-0.01,-0.02,0.03
1.4225611686706543,-0.02,0.0,-0.02,0.02
1.4325580596923828,-0.02,0.0,-0.03,0.03
1.4423930644989014,-0.01,0.0,-0.02,0.02
1.4524779319763184,-0.02,-0.01,-0.03,0.03
1.4624719619750977,-0.01,0.0,-0.02,0.02
1.4723119735717773,-0.02,0.0,-0.02,0.02
1.4822421073913574,-0.02,-0.01,-0.02,0.03
1.4924731254577637,-0.02,-0.01,-0.03,0.03
1.502173900604248,-0.01,0.0,-0.02,0.02
1.5118041038513184,-0.01,0.0,-0.01,0.01
1.521867036819458,-0.02,0.0,-0.03,0.03
1.5321540832519531,-0.02,0.01,-0.02,0.03
1.5419480800628662,-0.02,0.0,-0.02,0.02
1.5519599914550781,-0.02,0.0,-0.02,0.02
1.5616679191589355,-0.02,-0.01,-0.03,0.03
1.5716118812561035,-0.02,-0.01,-0.02,0.03
1.5815351009368896,-0.02,-0.01,-0.02,0.03
1.5915501117706299,-0.02,0.0,-0.03,0.03
1.6015820503234863,-0.01,0.0,-0.02,0.02
1.6117150783538818,-0.01,0.0,-0.01,0.01
1.6211810111999512,-0.01,0.0,-0.02,0.02
1.6317529678344727,-0.02,-0.01,-0.02,0.03
1.6410589218139648,-0.01,-0.01,-0.02,0.02
1.651432991027832,-0.01,-0.01,-0.02,0.02
1.6598150730133057,-0.02,0.0,-0.02,0.02
1.6697640419006348,-0.01,0.0,-0.02,0.02
1.680224895477295,-0.02,0.01,-0.03,0.03
1.6896800994873047,-0.02,0.0,-0.03,0.03
1.698976993560791,-0.02,-0.01,-0.02,0.03
1.7086381912231445,-0.01,-0.01,-0.03,0.03
1.7204101085662842,-0.01,0.0,-0.04,0.04
1.7305989265441895,-0.02,0.0,-0.01,0.02
1.7402639389038086,-0.02,0.0,-0.02,0.02
1.749871015548706,-0.02,0.0,-0.01,0.02
1.759648084640503,-0.02,0.0,-0.01,0.02
1.7703499794006348,-0.02,0.0,-0.01,0.02
1.7790720462799072,-0.02,0.0,-0.01,0.02
1.7884979248046875,-0.25,-0.03,-0.05,0.25
1.7995638847351074,-0.71,-0.08,0.02,0.71
1.809804916381836,-0.03,0.54,0.02,0.54
1.819329023361206,0.37,1.14,-0.22,1.21
1.8295950889587402,0.35,1.08,0.04,1.13
1.8395030498504639,0.18,0.91,0.01,0.92
1.8493762016296387,0.14,0.76,-0.11,0.78
1.8594951629638672,0.17,0.69,0.02,0.71
1.8696961402893066,0.13,0.57,0.01,0.58
1.879331111907959,0.23,0.59,-0.05,0.63
1.8893160820007324,0.19,0.36,0.0,0.4
1.8992891311645508,0.13,0.1,-0.01,0.16
1.9091429710388184,0.09,-0.23,-0.03,0.24
1.9191820621490479,-0.07,-0.5,-0.02,0.5
1.929056167602539,-0.11,-0.66,0.04,0.67
1.9388740062713623,-0.13,-0.6,-0.08,0.61
1.948829174041748,-0.14,-0.54,0.0,0.55
1.9588170051574707,-0.03,-0.47,0.06,0.47
1.969161033630371,-0.07,-0.38,-0.09,0.39
1.9787731170654297,-0.15,-0.29,0.01,0.32
1.9888548851013184,0.0,-0.27,-0.02,0.27
1.998603105545044,-0.05,-0.44,-0.08,0.45
2.008519172668457,-0.1,-0.59,0.11,0.6
2.018505096435547,-0.15,-0.92,-0.14,0.94
2.0281949043273926,-0.11,-0.87,0.03,0.87
2.0381250381469727,-0.01,-0.02,0.0,0.02
2.04831600189209,-0.02,0.03,-0.02,0.04
2.0569329261779785,0.0,-0.01,-0.05,0.05
2.068542003631592,0.01,-0.01,-0.12,0.12
2.0778419971466064,-0.04,0.01,0.13,0.13
2.087015151977539,-0.01,0.0,-0.05,0.05
2.0962140560150146,-0.01,-0.01,-0.06,0.06
2.1064460277557373,-0.02,0.0,0.03,0.03
2.1168432235717773,-0.01,-0.01,-0.04,0.04
2.126763105392456,-0.01,-0.01,-0.04,0.04
2.137629985809326,-0.01,-0.01,-0.02,0.02
2.1474430561065674,-0.02,0.0,-0.02,0.02
2.158067226409912,-0.01,0.0,-0.03,0.03
2.167412042617798,-0.01,0.0,-0.03,0.03
2.177143096923828,-0.02,0.0,0.0,0.02
2.1872811317443848,-0.02,0.0,-0.03,0.03
2.197050094604492,-0.01,0.0,-0.03,0.03
2.2072181701660156,-0.01,-0.01,0.0,0.01
2.2168450355529785,-0.03,0.0,-0.02,0.03
2.226919174194336,-0.02,0.0,-0.03,0.03
2.2370541095733643,-0.01,-0.01,-0.01,0.01
2.24685001373291,-0.01,-0.01,-0.01,0.01
2.256726026535034,-0.01,0.0,-0.03,0.03
2.266697883605957,-0.01,-0.01,-0.02,0.02
2.276482105255127,-0.02,0.0,0.0,0.02
2.2865850925445557,-0.02,0.0,-0.02,0.02
2.2963929176330566,-0.01,-0.01,-0.03,0.03
2.306488037109375,-0.02,-0.01,-0.01,0.02
2.316135883331299,-0.01,0.0,-0.02,0.02
2.3262391090393066,-0.02,0.0,-0.03,0.03
2.3367719650268555,-0.01,-0.01,-0.01,0.01
2.3462910652160645,-0.03,0.0,-0.02,0.03
2.355910062789917,-0.02,0.0,-0.04,0.04
2.36588191986084,-0.01,0.0,-0.03,0.03
2.3757500648498535,-0.01,0.0,-0.01,0.01
2.386430025100708,-0.02,-0.01,-0.02,0.03
2.3956120014190674,-0.01,0.0,-0.02,0.02
2.40569806098938,-0.02,0.0,-0.02,0.02
2.415738105773926,-0.01,0.0,-0.03,0.03
2.4256949424743652,-0.01,0.0,-0.03,0.03
2.4357290267944336,-0.01,0.0,-0.02,0.02
2.445518970489502,-0.02,0.01,-0.03,0.03
2.455228090286255,-0.01,0.0,-0.03,0.03
2.465301990509033,-0.01,0.0,-0.02,0.02
2.4751811027526855,-0.01,0.0,-0.02,0.02
2.485225200653076,-0.01,-0.01,-0.02,0.02
2.4951930046081543,-0.02,0.0,-0.03,0.03
2.5049800872802734,-0.01,-0.01,-0.01,0.01
2.514925956726074,-0.01,0.0,-0.02,0.02
2.524937152862549,-0.01,0.0,-0.03,0.03
2.534946918487549,-0.02,0.0,-0.03,0.03
2.544732093811035,-0.02,0.0,-0.03,0.03
2.554687023162842,-0.01,0.0,-0.02,0.02
2.5646650791168213,-0.01,0.0,-0.02,0.02
2.5744972229003906,-0.01,0.01,-0.02,0.02
2.5845420360565186,-0.01,-0.01,-0.02,0.02
2.5943331718444824,0.0,-0.01,-0.02,0.02
2.604307174682617,-0.01,-0.01,-0.03,0.03
2.6141490936279297,-0.01,0.0,-0.02,0.02
2.6242949962615967,-0.01,-0.01,-0.01,0.01
2.634045124053955,-0.01,-0.01,-0.02,0.02
2.644102096557617,-0.01,-0.01,-0.02,0.02
2.6542410850524902,-0.02,0.0,-0.01,0.02
2.66395902633667,-0.02,0.0,-0.02,0.02
2.673919200897217,-0.02,0.0,-0.03,0.03
2.6837239265441895,-0.02,0.01,-0.03,0.03
2.6936190128326416,-0.02,0.0,-0.02,0.02
2.7036561965942383,-0.02,0.0,-0.02,0.02
2.713430881500244,-0.02,0.0,-0.03,0.03
2.723522186279297,-0.01,0.0,-0.02,0.02
2.7333030700683594,-0.01,0.0,-0.02,0.02
2.743345022201538,-0.01,0.0,-0.03,0.03
2.7532200813293457,-0.02,0.0,-0.03,0.03
2.7631490230560303,-0.02,0.0,-0.02,0.02
2.7730932235717773,-0.02,0.0,-0.03,0.03
2.783241033554077,-0.02,-0.01,-0.03,0.03
2.792912006378174,-0.02,-0.01,-0.02,0.03
2.8031070232391357,-0.01,-0.01,-0.02,0.02
2.812833070755005,-0.02,-0.01,-0.02,0.03
2.8225409984588623,-0.02,0.0,-0.03,0.03
2.8316569328308105,-0.01,-0.01,-0.02,0.02
2.8417739868164062,-0.01,0.0,-0.02,0.02
2.8527090549468994,-0.02,-0.01,-0.02,0.03
2.862622022628784,-0.01,-0.01,-0.02,0.02
2.8724751472473145,-0.02,0.0,-0.01,0.02
2.8824381828308105,-0.02,0.0,-0.02,0.02
2.892385959625244,-0.02,0.0,-0.02,0.02
2.9022819995880127,-0.02,0.0,-0.02,0.02
2.9122400283813477,-0.02,0.01,-0.02,0.03
2.922077178955078,-0.01,0.0,-0.03,0.03
2.932094097137451,-0.01,0.0,-0.03,0.03
2.941965103149414,-0.02,-0.01,-0.03,0.03
2.9518961906433105,-0.02,-0.01,-0.03,0.03
2.961945056915283,-0.02,0.0,-0.02,0.02
2.9717822074890137,-0.01,0.0,-0.02,0.02
2.981761932373047,-0.02,0.0,-0.02,0.02
2.9915871620178223,-0.01,0.0,-0.03,0.03
3.0017871856689453,-0.01,0.0,-0.02,0.02
3.0108718872070312,-0.01,0.0,-0.01,0.01
3.0240440368652344,-0.01,-0.01,-0.01,0.01
3.030405044555664,-0.01,0.0,-0.03,0.03
3.040802001953125,-0.02,0.0,-0.02,0.02
3.0513761043548584,-0.02,-0.01,-0.01,0.02
3.061467170715332,-0.01,0.0,-0.03,0.03
3.0714101791381836,-0.02,-0.01,-0.02,0.03
3.081088066101074,-0.01,0.0,-0.01,0.01
3.0911521911621094,-0.02,-0.01,-0.01,0.02
3.101147174835205,-0.02,0.0,-0.02,0.02
3.110908031463623,-0.01,0.0,-0.02,0.02
3.120828151702881,-0.01,0.0,-0.03,0.03
3.130791187286377,-0.02,0.0,-0.02,0.02
3.1408519744873047,-0.02,-0.01,-0.01,0.02
3.1507210731506348,-0.01,-0.01,-0.01,0.01
3.1604740619659424,-0.01,0.0,-0.02,0.02
3.170548915863037,-0.01,0.0,-0.02,0.02
3.1805360317230225,-0.02,-0.01,-0.01,0.02
3.1902990341186523,-0.02,-0.01,-0.02,0.03
3.2002880573272705,-0.02,-0.01,-0.02,0.03
3.210455894470215,-0.02,-0.01,-0.01,0.02
3.2202510833740234,-0.02,-0.01,-0.01,0.02
3.2301201820373535,-0.01,-0.01,-0.02,0.02
3.2401351928710938,-0.01,-0.01,-0.01,0.01
3.2503550052642822,-0.01,-0.01,-0.01,0.01
3.2603800296783447,-0.01,-0.01,-0.02,0.02
3.270008087158203,-0.01,0.0,-0.01,0.01
3.279819965362549,-0.02,0.0,-0.01,0.02
3.289914131164551,-0.01,0.0,-0.02,0.02
3.299757957458496,-0.01,-0.01,-0.02,0.02
3.3095149993896484,-0.01,-0.01,-0.02,0.02
3.3199000358581543,-0.01,0.0,-0.02,0.02
3.329472064971924,-0.01,-0.01,-0.02,0.02
3.3397998809814453,-0.01,-0.01,-0.01,0.01
3.349364995956421,-0.01,-0.01,-0.01,0.01
3.3592300415039062,-0.01,-0.01,-0.02,0.02
3.369752883911133,-0.02,-0.01,-0.02,0.03
3.3792309761047363,-0.01,0.0,-0.01,0.01
3.3891170024871826,-0.02,0.0,-0.01,0.02
3.3990511894226074,-0.02,0.0,-0.02,0.02
3.408790111541748,-0.02,-0.01,-0.02,0.03
3.4194769859313965,-0.01,0.0,-0.01,0.01
3.4287750720977783,-0.01,-0.01,-0.01,0.01
3.438955068588257,-0.01,0.0,-0.01,0.01
3.4486870765686035,-0.01,-0.01,-0.02,0.02
3.458601951599121,-0.01,-0.01,-0.02,0.02
3.4684720039367676,-0.02,-0.01,-0.02,0.03
3.478431224822998,-0.01,0.0,-0.02,0.02
3.488347053527832,-0.02,0.0,-0.02,0.02
3.4983320236206055,-0.02,-0.01,-0.02,0.03
3.5081639289855957,-0.02,0.0,-0.02,0.02
3.5183000564575195,-0.02,0.0,-0.02,0.02
3.5280520915985107,-0.01,-0.01,-0.01,0.01
3.5380430221557617,-0.01,-0.01,-0.02,0.02
3.5481162071228027,-0.02,0.0,-0.03,0.03
3.557965040206909,-0.01,-0.01,-0.02,0.02
3.5677809715270996,-0.01,-0.01,-0.01,0.01
3.577805995941162,-0.02,0.0,-0.01,0.02
3.587557077407837,-0.01,0.0,-0.02,0.02
3.5976500511169434,-0.01,-0.01,-0.02,0.02
3.6074070930480957,-0.01,-0.01,-0.02,0.02
3.6175599098205566,-0.02,-0.01,-0.01,0.02
3.6274490356445312,-0.01,-0.01,-0.01,0.01
3.6375441551208496,-0.01,0.0,-0.02,0.02
3.6485719680786133,0.0,-0.01,-0.15,0.15
3.656404972076416,-0.03,0.01,0.15,0.15
3.6662211418151855,0.0,-0.01,-0.04,0.04
3.677244186401367,-0.01,-0.01,-0.03,0.03
3.6871449947357178,-0.02,0.0,0.03,0.03
3.696812152862549,-0.02,-0.01,-0.01,0.02
3.716815948486328,-0.01,0.0,-0.1,0.1
3.737159013748169,-0.02,0.0,-0.01,0.02
3.7383899688720703,-0.02,0.0,0.03,0.03
3.7394649982452393,-0.02,0.0,-0.03,0.03
3.7439730167388916,-0.02,-0.01,-0.04,0.04
3.754545211791992,-0.01,0.0,0.02,0.02
3.764008045196533,-0.02,0.0,-0.03,0.03
3.7744600772857666,-0.01,-0.01,-0.07,0.07
3.7867369651794434,-0.01,0.0,0.0,0.01
3.7952721118927,-0.02,0.0,0.0,0.02
3.805577039718628,-0.02,-0.01,-0.06,0.06
3.8163352012634277,-0.01,-0.01,-0.01,0.01
3.8234829902648926,-0.02,-0.01,0.0,0.02
3.83427095413208,-0.01,0.0,-0.05,0.05
3.8462700843811035,-0.01,-0.01,-0.03,0.03
3.8554139137268066,-0.02,0.0,0.01,0.02
3.865417957305908,-0.02,-0.01,-0.02,0.03
3.873192071914673,-0.01,-0.01,-0.04,0.04
3.8835721015930176,-0.01,-0.01,-0.01,0.01
3.8950560092926025,-0.01,-0.01,0.0,0.01
3.9059629440307617,-0.02,0.0,-0.03,0.03
3.916356086730957,-0.02,0.0,-0.01,0.02
3.9224281311035156,-0.02,0.0,0.0,0.02
3.9331159591674805,-0.01,0.0,-0.03,0.03
3.9440531730651855,-0.01,0.0,-0.03,0.03
3.955221176147461,0.0,0.0,-0.01,0.01
3.9690160751342773,-0.02,-0.01,-0.03,0.03
3.9725708961486816,-0.01,0.0,-0.03,0.03
3.9946250915527344,-0.02,0.0,-0.01,0.02
3.997988224029541,-0.01,0.0,-0.01,0.01
4.006807088851929,-0.01,0.0,-0.03,0.03
4.015120029449463,-0.02,-0.01,-0.01,0.02
4.02453088760376,-0.01,0.0,-0.01,0.01
4.032442092895508,-0.01,0.0,-0.02,0.02
4.044177055358887,-0.02,-0.01,-0.02,0.03
4.05410099029541,-0.01,-0.01,-0.01,0.01
4.062268018722534,-0.02,-0.01,-0.02,0.03
4.072120189666748,-0.01,0.0,-0.02,0.02
4.082247018814087,-0.01,-0.01,-0.01,0.01
4.094202995300293,-0.02,0.0,-0.01,0.02
4.103913068771362,-0.01,-0.01,-0.02,0.02
4.113019943237305,-0.02,0.0,-0.02,0.02
4.121061086654663,-0.01,0.0,-0.02,0.02
4.133518218994141,-0.01,0.0,-0.03,0.03
4.143157005310059,-0.01,-0.01,-0.01,0.01
4.153418064117432,-0.01,0.0,0.0,0.01
4.163647174835205,-0.01,-0.01,-0.02,0.02
4.17094612121582,-0.01,0.0,-0.01,0.01
4.181614875793457,-0.02,-0.01,-0.01,0.02
4.192953109741211,-0.01,-0.01,-0.02,0.02
4.203236103057861,-0.01,0.0,-0.02,0.02
4.214552879333496,-0.01,0.0,-0.02,0.02
4.221303939819336,-0.02,-0.01,-0.02,0.03
4.232929229736328,-0.01,-0.01,-0.02,0.02
4.241427898406982,-0.01,-0.01,-0.02,0.02
4.253019094467163,-0.01,0.0,-0.02,0.02
4.266125202178955,-0.02,0.0,-0.02,0.02
4.2703070640563965,-0.01,0.0,-0.01,0.01
4.282653093338013,-0.02,0.0,-0.02,0.02
4.2918171882629395,-0.02,-0.01,-0.01,0.02
4.302467107772827,-0.01,-0.01,-0.02,0.02
4.313547134399414,-0.01,-0.01,-0.01,0.01
4.319834232330322,-0.01,0.0,-0.01,0.01
4.330684185028076,-0.02,-0.01,-0.02,0.03
4.342144966125488,-0.01,0.0,-0.01,0.01
4.350961208343506,-0.01,0.0,-0.01,0.01
4.363174915313721,-0.02,-0.01,-0.02,0.03
4.369865894317627,-0.02,0.0,-0.02,0.02
4.380069017410278,-0.01,-0.01,-0.01,0.01
4.3912529945373535,-0.01,-0.01,-0.01,0.01
4.402116060256958,-0.01,0.0,-0.02,0.02
4.415420055389404,-0.01,0.0,-0.02,0.02
4.419145107269287,-0.01,-0.01,-0.02,0.02
4.432641983032227,-0.01,0.0,-0.03,0.03
4.441154956817627,-0.01,-0.01,-0.02,0.02
4.451321125030518,-0.02,0.0,-0.02,0.02
4.463890075683594,-0.01,0.0,-0.02,0.02
4.469122886657715,-0.01,-0.01,-0.02,0.02
4.4794371128082275,-0.01,-0.01,-0.01,0.01
4.4913060665130615,-0.01,-0.01,-0.02,0.02
4.5004401206970215,-0.02,0.0,-0.02,0.02
4.510272979736328,-0.02,0.0,-0.01,0.02
4.518608093261719,-0.01,0.01,-0.02,0.02
4.531339168548584,-0.01,0.0,-0.01,0.01
4.5403900146484375,-0.01,-0.01,-0.02,0.02
4.550014019012451,-0.02,-0.01,-0.02,0.03
4.560267925262451,-0.01,-0.01,-0.02,0.02
4.568357944488525,-0.01,-0.01,-0.01,0.01
4.578780174255371,-0.02,-0.01,-0.01,0.02
4.59127402305603,-0.02,0.0,-0.02,0.02
4.5999531745910645,-0.01,0.0,-0.02,0.02
4.608097076416016,-0.02,0.0,-0.02,0.02
4.618149995803833,-0.02,0.0,-0.02,0.02
4.6303582191467285,-0.01,-0.01,-0.02,0.02
4.639355182647705,-0.01,-0.01,-0.01,0.01
4.649628162384033,-0.02,-0.01,-0.01,0.02
4.66099214553833,-0.02,-0.01,-0.02,0.03
4.667360067367554,-0.02,-0.01,-0.02,0.03
4.678004026412964,-0.01,0.0,-0.02,0.02
4.688774108886719,-0.01,0.0,-0.02,0.02
4.699394226074219,-0.02,0.0,-0.01,0.02
4.712406158447266,-0.02,0.0,-0.02,0.02
4.717211008071899,-0.01,-0.01,-0.03,0.03
4.727727890014648,-0.02,0.0,-0.02,0.02
4.737948894500732,-0.02,0.0,-0.02,0.02
4.7492852210998535,-0.02,-0.01,-0.03,0.03
4.763237953186035,-0.02,0.0,-0.02,0.02
4.766993999481201,-0.01,0.0,-0.01,0.01
4.777527093887329,-0.02,-0.01,-0.02,0.03
4.788722991943359,-0.01,-0.01,-0.02,0.02
4.798257112503052,-0.01,0.0,-0.02,0.02
4.809176921844482,0.0,-0.01,-0.01,0.01
4.816562175750732,-0.01,-0.01,-0.02,0.02
4.827075004577637,-0.02,-0.01,-0.02,0.03
4.8386549949646,-0.01,-0.01,-0.02,0.02
4.848443984985352,-0.01,0.0,-0.02,0.02
4.859738111495972,-0.01,-0.01,-0.02,0.02
4.866098880767822,-0.01,0.0,-0.02,0.02
4.87629508972168,-0.01,-0.01,-0.02,0.02
4.889259099960327,-0.02,-0.01,-0.02,0.03
4.8979010581970215,-0.01,0.0,-0.02,0.02
4.909769058227539,-0.01,0.0,-0.03,0.03
4.9158501625061035,-0.01,-0.01,-0.02,0.02
4.925558090209961,-0.01,-0.01,-0.02,0.02
4.938677072525024,-0.02,0.0,-0.02,0.02
4.947297096252441,-0.01,-0.01,-0.02,0.02
4.956878185272217,-0.01,-0.01,-0.02,0.02
4.966102123260498,-0.01,0.0,-0.01,0.01
4.97789192199707,-0.01,-0.01,-0.02,0.02
4.987767219543457,-0.01,0.0,-0.03,0.03
4.997796058654785,-0.02,-0.01,-0.02,0.03
5.0079920291900635,-0.02,-0.01,-0.01,0.02
5.015372037887573,-0.01,-0.01,-0.03,0.03
5.025567054748535,-0.02,0.0,-0.02,0.02
5.038171052932739,-0.02,-0.01,-0.02,0.03
5.046546936035156,-0.02,-0.01,-0.02,0.03
5.057918071746826,-0.01,0.0,-0.01,0.01
5.064895153045654,-0.01,0.0,-0.02,0.02
5.07490611076355,-0.01,0.0,-0.02,0.02
5.08835506439209,-0.02,-0.01,-0.02,0.03
5.09652304649353,-0.01,-0.01,-0.02,0.02
5.1085100173950195,-0.01,0.0,-0.02,0.02
5.1147260665893555,-0.02,0.0,-0.02,0.02
5.124491214752197,-0.02,0.0,-0.02,0.02
5.1361610889434814,-0.02,0.0,-0.02,0.02
5.146903991699219,-0.02,-0.01,-0.02,0.03
5.160607099533081,-0.01,-0.01,-0.01,0.01
5.164120197296143,-0.01,0.0,-0.01,0.01
5.174278020858765,-0.01,0.0,-0.01,0.01
5.186490058898926,-0.01,-0.01,-0.01,0.01
5.195137023925781,-0.01,-0.01,-0.01,0.01
5.2085089683532715,-0.02,-0.01,-0.01,0.02
5.2137510776519775,-0.02,-0.01,-0.03,0.03
5.225788116455078,-0.02,0.0,-0.03,0.03
5.235966205596924,-0.02,-0.01,-0.02,0.03
5.2455220222473145,-0.02,-0.01,-0.01,0.02
5.26002311706543,-0.01,0.0,-0.02,0.02
5.263346195220947,-0.01,0.0,-0.02,0.02
5.274924039840698,-0.01,0.0,-0.02,0.02
5.285161972045898,-0.01,0.0,-0.02,0.02
5.295843124389648,-0.01,0.0,-0.01,0.01
5.3104939460754395,-0.01,-0.01,-0.03,0.03
5.312948226928711,-0.02,-0.01,-0.03,0.03
5.323421955108643,-0.01,0.0,-0.01,0.01
5.335781097412109,-0.02,-0.01,-0.02,0.03
5.345148086547852,-0.01,0.0,-0.02,0.02
5.355690956115723,-0.01,0.0,-0.02,0.02
5.363738059997559,-0.02,-0.01,-0.02,0.03
5.374727010726929,-0.01,-0.01,-0.02,0.02
5.384389877319336,-0.01,0.0,-0.02,0.02
5.3943870067596436,-0.01,-0.01,-0.02,0.02
5.406599998474121,-0.01,-0.01,-0.02,0.02
5.412882089614868,-0.02,0.0,-0.03,0.03
5.423129081726074,-0.01,0.0,-0.02,0.02
5.43464207649231,-0.02,0.0,-0.02,0.02
5.444533109664917,-0.01,-0.01,-0.02,0.02
5.45713996887207,-0.02,-0.01,-0.02,0.03
5.462414026260376,-0.01,-0.01,-0.02,0.02
5.476260185241699,-0.01,-0.01,-0.02,0.02
5.485418081283569,-0.02,0.0,0.0,0.02
5.492917060852051,-0.02,0.0,0.0,0.02
5.504718065261841,-0.02,0.0,-0.01,0.02
5.512325048446655,-0.01,0.0,-0.03,0.03
5.524574041366577,-0.02,-0.01,-0.01,0.02
5.53325891494751,-0.02,-0.01,-0.02,0.03
5.543231010437012,-0.02,-0.01,-0.03,0.03
5.553673028945923,-0.02,0.0,-0.02,0.02
5.56174111366272,-0.02,-0.01,-0.01,0.02
5.57629919052124,-0.01,-0.01,-0.02,0.02
5.582463026046753,-0.01,-0.01,-0.02,0.02
5.593938112258911,-0.01,0.0,-0.01,0.01
5.607251167297363,-0.01,0.0,-0.02,0.02
5.611396074295044,-0.02,-0.01,-0.03,0.03
5.626965045928955,-0.01,-0.01,-0.01,0.01
5.6318440437316895,-0.01,-0.01,-0.01,0.01
5.643035888671875,-0.01,-0.01,-0.02,0.02
5.6563310623168945,-0.01,-0.01,-0.01,0.01
5.660559177398682,-0.01,-0.01,-0.01,0.01
5.671380043029785,-0.01,-0.02,-0.03,0.03
5.683114051818848,-0.01,-0.01,-0.02,0.02
5.6907548904418945,-0.01,-0.01,-0.01,0.01
5.700766086578369,-0.01,-0.01,-0.01,0.01
5.712421894073486,-0.01,-0.01,-0.02,0.02
5.722667217254639,-0.01,-0.01,-0.01,0.01
5.7321860790252686,-0.01,-0.01,-0.02,0.02
5.741355895996094,-0.01,-0.01,-0.02,0.02
5.753876209259033,-0.01,-0.01,-0.01,0.01
5.760589122772217,-0.02,0.0,-0.02,0.02
5.770248889923096,-0.02,0.0,-0.02,0.02
5.7824602127075195,-0.01,0.0,-0.02,0.02
5.792118072509766,-0.01,-0.01,-0.01,0.01
5.806938171386719,-0.01,-0.01,-0.02,0.02
5.8096489906311035,-0.01,0.0,-0.02,0.02
5.8204569816589355,-0.02,0.0,-0.02,0.02
5.8319501876831055,-0.01,0.0,-0.02,0.02
5.841094970703125,-0.01,0.0,-0.02,0.02
5.854969024658203,-0.01,0.0,-0.01,0.01
5.859687089920044,-0.01,0.0,0.0,0.01
5.869734048843384,-0.01,0.0,-0.01,0.01
5.881758213043213,-0.01,-0.01,-0.01,0.01
5.890655040740967,-0.01,0.0,-0.01,0.01
5.902184963226318,0.0,-0.01,-0.02,0.02
5.909207105636597,-0.02,0.0,-0.02,0.02
5.924345970153809,-0.02,0.0,-0.01,0.02
5.928950071334839,-0.01,0.0,-0.02,0.02
5.941529035568237,-0.01,0.0,-0.01,0.01
5.953157901763916,-0.02,-0.01,-0.02,0.03
5.958992004394531,-0.01,-0.01,-0.01,0.01
5.974775075912476,-0.02,-0.01,-0.03,0.03
5.979039192199707,-0.01,-0.01,-0.02,0.02
5.993326187133789,-0.01,0.0,-0.02,0.02
6.00373101234436,-0.01,0.0,-0.02,0.02
6.008362054824829,-0.01,-0.01,-0.02,0.02
6.02081298828125,-0.01,-0.02,-0.02,0.03
6.030125141143799,-0.01,-0.01,-0.02,0.02
6.040179014205933,-0.03,-0.01,-0.02,0.03
6.051793098449707,-0.02,-0.02,-0.02,0.03
6.05797004699707,-0.02,-0.01,-0.02,0.03
6.068547010421753,-0.01,-0.01,-0.02,0.02
6.080450057983398,-0.02,-0.01,-0.02,0.03
6.089983940124512,-0.02,-0.01,-0.01,0.02
6.101556062698364,-0.01,-0.01,-0.01,0.01
6.107616901397705,-0.02,-0.01,-0.01,0.02
6.118337154388428,-0.01,0.0,-0.01,0.01
6.129885196685791,-0.01,-0.01,-0.02,0.02
6.139358997344971,-0.01,-0.01,-0.03,0.03
6.151819229125977,-0.01,0.0,-0.01,0.01
6.15736198425293,-0.02,-0.01,-0.01,0.02
6.167623043060303,-0.01,-0.01,-0.02,0.02
6.179384231567383,-0.01,-0.01,-0.02,0.02
6.189060211181641,-0.01,0.0,-0.02,0.02
6.201365947723389,-0.01,-0.01,-0.02,0.02
6.206907033920288,-0.01,0.0,-0.02,0.02
6.217617034912109,-0.01,0.0,-0.01,0.01
6.2292351722717285,-0.01,0.0,-0.02,0.02
6.239109039306641,-0.02,-0.01,-0.02,0.03
6.248833179473877,-0.02,0.0,-0.02,0.02
6.256825923919678,-0.01,-0.01,-0.02,0.02
6.266980171203613,-0.02,-0.01,-0.01,0.02
6.278670072555542,-0.02,-0.01,-0.02,0.03
6.288414001464844,-0.02,0.0,-0.02,0.02
6.2988409996032715,-0.01,0.0,-0.03,0.03
6.30635404586792,-0.02,0.0,-0.02,0.02
6.319313049316406,-0.01,-0.01,-0.02,0.02
6.328355073928833,-0.01,-0.02,-0.03,0.03
6.339097023010254,-0.02,-0.01,-0.01,0.02
6.349812984466553,-0.01,-0.01,0.0,0.01
6.3560791015625,-0.01,0.0,-0.02,0.02
6.366193056106567,-0.01,0.0,-0.02,0.02
6.378237009048462,-0.02,0.0,-0.01,0.02
6.390193939208984,-0.02,-0.01,-0.02,0.03
6.399396896362305,-0.02,-0.01,-0.02,0.03
6.405821084976196,-0.01,-0.01,-0.02,0.02
6.415852069854736,-0.01,-0.01,-0.01,0.01
6.427444934844971,-0.02,-0.01,-0.01,0.02
6.438011169433594,-0.01,0.0,-0.02,0.02
6.449304103851318,-0.02,0.0,-0.02,0.02
6.455302000045776,-0.01,0.0,-0.02,0.02
6.465830087661743,-0.01,-0.01,-0.02,0.02
6.477592945098877,-0.02,-0.01,-0.02,0.03
6.487858057022095,-0.01,0.0,-0.01,0.01
6.499687194824219,-0.01,0.0,-0.02,0.02
6.5048699378967285,-0.01,-0.01,-0.02,0.02
6.51565408706665,-0.02,-0.01,-0.02,0.03
6.527493000030518,-0.01,-0.01,-0.02,0.02
6.53709602355957,-0.01,-0.01,-0.01,0.01
6.546209096908569,-0.01,0.0,0.0,0.01
6.554984092712402,-0.01,0.0,-0.01,0.01
6.5670740604400635,-0.01,-0.01,-0.02,0.02
6.576059103012085,-0.01,-0.01,-0.03,0.03
6.587090969085693,-0.02,-0.01,-0.02,0.03
6.597085952758789,-0.01,0.0,-0.01,0.01
6.60429310798645,-0.01,-0.01,-0.01,0.01
6.617013931274414,-0.01,0.0,-0.02,0.02
6.626214027404785,-0.02,-0.01,-0.02,0.03
6.636504173278809,-0.01,-0.01,-0.02,0.02
6.646512031555176,-0.02,0.0,-0.02,0.02
6.654394149780273,-0.01,-0.01,-0.02,0.02
6.666543960571289,-0.01,0.0,-0.01,0.01
6.674314975738525,-0.02,-0.01,-0.02,0.03
6.685813903808594,-0.02,-0.01,-0.02,0.03
6.696606159210205,-0.02,-0.01,-0.02,0.03
6.703897953033447,-0.02,-0.01,-0.01,0.02
6.716307163238525,-0.01,-0.01,-0.01,0.01
6.72564697265625,-0.02,0.0,-0.01,0.02
6.734477996826172,-0.02,0.0,-0.01,0.02
6.745141983032227,-0.02,-0.01,-0.02,0.03
6.753660202026367,-0.01,-0.01,-0.02,0.02
6.766154050827026,-0.02,-0.02,-0.02,0.03
6.773364067077637,-0.02,0.0,-0.02,0.02
6.78599214553833,-0.01,0.0,-0.01,0.01
6.796172142028809,-0.01,-0.01,-0.01,0.01
6.803028106689453,-0.01,0.0,-0.01,0.01
6.815770149230957,-0.02,0.0,-0.02,0.02
6.823127031326294,-0.02,-0.01,-0.02,0.03
6.834971904754639,-0.02,-0.01,-0.02,0.03
6.846610069274902,-0.01,0.0,-0.02,0.02
6.853157997131348,0.0,-0.01,-0.01,0.01
6.865254878997803,-0.01,-0.01,-0.02,0.02
6.874157905578613,-0.01,0.0,-0.01,0.01
6.88436222076416,-0.01,-0.01,0.0,0.01
6.896214008331299,-0.02,-0.01,-0.02,0.03
6.902432918548584,-0.02,0.0,-0.01,0.02
6.91243314743042,-0.01,-0.01,-0.01,0.01
6.924792051315308,-0.01,-0.02,-0.02,0.03
6.934010028839111,-0.01,-0.01,-0.02,0.02
6.94673490524292,-0.02,-0.02,-0.01,0.03
6.9521191120147705,-0.02,-0.01,-0.01,0.02
6.96235203742981,-0.02,-0.01,-0.02,0.03
6.974241018295288,-0.02,0.0,-0.02,0.02
6.983472108840942,-0.01,0.0,-0.02,0.02
6.992932081222534,-0.01,0.0,-0.02,0.02
7.002403020858765,-0.02,-0.01,0.0,0.02
7.014743089675903,-0.01,-0.01,-0.01,0.01
7.024017095565796,-0.02,-0.01,-0.02,0.03
7.032821178436279,-0.03,-0.01,-0.02,0.03
7.043099880218506,-0.01,-0.02,-0.02,0.03
7.051680088043213,-0.01,-0.01,-0.02,0.02
7.064097881317139,-0.02,0.0,-0.02,0.02
7.073410987854004,-0.01,0.0,-0.01,0.01
7.082468032836914,-0.01,0.0,-0.01,0.01
7.092778205871582,-0.02,0.0,-0.01,0.02
7.101006031036377,-0.02,-0.01,-0.01,0.02
7.113784074783325,-0.02,-0.02,-0.02,0.03
7.122710227966309,-0.01,-0.01,-0.02,0.02
7.13301420211792,-0.01,0.0,-0.01,0.01
7.144862174987793,-0.01,0.0,-0.02,0.02
7.150490045547485,-0.01,0.0,-0.02,0.02
7.160612106323242,-0.01,-0.01,-0.02,0.02
7.173192024230957,-0.02,0.0,-0.01,0.02
7.182807922363281,-0.01,-0.01,-0.02,0.02
7.192256927490234,-0.01,-0.01,-0.02,0.02
7.2007222175598145,-0.02,0.0,-0.02,0.02
7.210864067077637,0.0,-0.01,-0.02,0.02
7.222460031509399,-0.01,-0.01,-0.02,0.02
7.232379913330078,-0.02,-0.01,-0.01,0.02
7.244287967681885,-0.01,0.0,-0.01,0.01
7.250190019607544,-0.01,-0.01,-0.01,0.01
7.260556221008301,-0.01,-0.01,-0.02,0.02
7.272954940795898,-0.01,0.0,-0.01,0.01
7.280771017074585,-0.01,0.0,-0.01,0.01
7.290442943572998,-0.01,0.0,-0.01,0.01
7.3010900020599365,-0.01,0.0,-0.01,0.01
7.312230110168457,-0.02,0.0,-0.01,0.02
7.321937084197998,-0.01,0.0,-0.03,0.03
7.331618070602417,-0.01,-0.01,-0.02,0.02
7.345355033874512,-0.02,-0.02,-0.02,0.03
7.34941291809082,-0.01,-0.01,-0.02,0.02
7.358957052230835,-0.01,-0.01,-0.02,0.02
7.372096061706543,-0.02,0.0,-0.01,0.02
7.381424903869629,-0.01,-0.01,-0.01,0.01
7.390862941741943,-0.02,-0.01,-0.02,0.03
7.399371147155762,-0.02,-0.01,-0.01,0.02
7.411291122436523,-0.01,0.0,-0.02,0.02
7.420872211456299,-0.01,-0.01,-0.01,0.01
7.430768013000488,-0.01,0.0,-0.01,0.01
7.440823078155518,-0.01,-0.02,-0.01,0.02
7.449049949645996,-0.01,-0.01,-0.02,0.02
7.460362911224365,-0.01,-0.01,-0.01,0.01
7.471097946166992,-0.02,-0.01,-0.01,0.02
7.48040509223938,-0.01,0.0,-0.01,0.01
7.489829063415527,-0.01,0.0,-0.03,0.03
7.498703956604004,0.0,-0.01,-0.02,0.02
7.510751008987427,-0.02,-0.01,-0.01,0.02
7.520241022109985,-0.01,-0.01,-0.02,0.02
7.530158996582031,-0.02,-0.01,-0.02,0.03
7.54091215133667,-0.02,0.0,-0.01,0.02
7.548054218292236,-0.02,-0.02,-0.01,0.03
7.558341979980469,-0.01,-0.01,-0.03,0.03
7.570892095565796,-0.01,0.0,-0.01,0.01
7.579256057739258,-0.02,0.0,-0.01,0.02
7.5911500453948975,-0.02,-0.01,-0.02,0.03
7.597600936889648,-0.01,-0.01,-0.02,0.02
7.607588052749634,-0.02,0.0,-0.02,0.02
7.621073007583618,-0.01,-0.01,0.0,0.01
7.629079103469849,-0.01,-0.01,-0.02,0.02
7.639898061752319,-0.01,-0.01,-0.02,0.02
7.647661209106445,-0.01,0.0,-0.01,0.01
7.660835027694702,-0.02,-0.02,-0.01,0.03
7.670301914215088,-0.01,0.0,-0.01,0.01
7.677196979522705,-0.01,0.0,-0.01,0.01
7.687627077102661,-0.01,0.0,-0.02,0.02
7.6995790004730225,-0.01,-0.01,-0.01,0.01
7.706952095031738,-0.01,-0.01,-0.02,0.02
7.71962308883667,-0.02,0.0,-0.01,0.02
7.727731227874756,-0.02,-0.01,-0.01,0.02
7.737552165985107,-0.01,-0.01,0.0,0.01
7.746415138244629,-0.01,-0.01,-0.02,0.02
7.7568769454956055,0.0,-0.01,-0.02,0.02
7.769618034362793,-0.01,-0.01,0.0,0.01
7.778213977813721,-0.02,0.0,-0.02,0.02
7.788599014282227,-0.01,-0.01,-0.03,0.03
7.796227931976318,-0.02,-0.01,-0.01,0.02
7.807845115661621,-0.01,-0.01,-0.01,0.01
7.817671060562134,-0.01,-0.01,-0.01,0.01
7.828339099884033,-0.02,-0.01,-0.01,0.02
7.840627193450928,-0.02,0.0,-0.02,0.02
7.845652103424072,-0.01,-0.01,-0.02,0.02
7.857542991638184,-0.02,-0.01,-0.01,0.02
7.86858606338501,-0.01,-0.02,-0.02,0.03
7.875793933868408,-0.01,-0.01,-0.01,0.01
7.885830879211426,-0.01,0.0,-0.02,0.02
7.895831108093262,-0.01,-0.01,-0.02,0.02
7.907083034515381,-0.01,-0.01,-0.02,0.02
7.918292999267578,-0.02,0.0,-0.01,0.02
7.927329063415527,-0.01,-0.01,-0.02,0.02
7.941845893859863,-0.01,-0.01,-0.01,0.01
7.944847106933594,-0.02,-0.01,-0.01,0.02
7.956947088241577,-0.01,-0.01,-0.01,0.01
7.967267990112305,-0.01,-0.01,-0.02,0.02
7.975832939147949,-0.01,-0.01,-0.02,0.02
7.989634037017822,-0.01,0.0,-0.02,0.02
7.994696140289307,-0.01,0.0,0.0,0.01
8.005247116088867,-0.01,0.0,-0.01,0.01
8.018723011016846,-0.02,-0.01,-0.01,0.02
8.026676177978516,-0.01,0.0,0.0,0.01
8.036466121673584,-0.02,0.0,-0.02,0.02
8.044415950775146,-0.02,-0.01,-0.02,0.03
8.05650520324707,-0.01,-0.02,-0.02,0.03
8.066686153411865,-0.01,-0.01,-0.03,0.03
8.076083183288574,-0.01,-0.01,-0.02,0.02
8.087666988372803,-0.01,0.0,-0.01,0.01
8.094080924987793,-0.01,-0.02,-0.01,0.02
8.104222059249878,-0.01,0.0,-0.01,0.01
8.11604905128479,-0.01,-0.02,-0.01,0.02
8.125974178314209,-0.01,0.0,-0.02,0.02
8.138325214385986,-0.02,0.0,-0.01,0.02
8.143845081329346,-0.01,-0.01,0.0,0.01
8.153976917266846,-0.01,0.0,-0.01,0.01
8.16626501083374,-0.01,-0.01,-0.02,0.02
8.173476219177246,0.0,-0.01,-0.03,0.03
8.183890104293823,-0.01,-0.02,-0.01,0.02
8.193591117858887,-0.01,-0.01,-0.02,0.02
8.204703092575073,-0.01,-0.01,-0.02,0.02
8.215753078460693,-0.01,0.0,-0.02,0.02
8.224870204925537,-0.01,-0.01,-0.02,0.02
8.243070125579834,-0.01,-0.01,-0.01,0.01
8.244015216827393,-0.02,0.0,-0.01,0.02
8.25312089920044,-0.01,-0.01,-0.01,0.01
8.266712188720703,-0.01,-0.01,-0.01,0.01
8.279545068740845,-0.02,0.0,-0.01,0.02
8.292968034744263,-0.01,-0.01,-0.01,0.01
8.296456098556519,-0.01,-0.01,-0.02,0.02
8.308089017868042,-0.01,-0.02,-0.02,0.03
8.319457054138184,-0.01,-0.01,-0.01,0.01
8.327374935150146,-0.01,-0.01,-0.01,0.01
8.337425231933594,-0.01,-0.01,-0.02,0.02
8.346691131591797,-0.01,-0.01,-0.01,0.01
8.357912063598633,-0.01,-0.01,-0.01,0.01
8.369175910949707,-0.01,-0.02,-0.02,0.03
8.378794193267822,-0.01,-0.01,-0.01,0.01
8.389538049697876,-0.01,-0.01,-0.01,0.01
8.396328926086426,-0.01,0.0,-0.02,0.02
8.406999111175537,-0.01,0.0,-0.02,0.02
8.419339179992676,-0.02,-0.02,-0.01,0.03
8.427976131439209,-0.01,0.0,-0.01,0.01
8.435648918151855,-0.01,-0.01,-0.01,0.01
8.445682048797607,-0.01,-0.01,-0.01,0.01
8.45772409439087,-0.01,0.0,-0.01,0.01
8.466947078704834,-0.01,0.0,-0.01,0.01
8.477829933166504,-0.01,-0.02,-0.01,0.02
8.489409923553467,-0.01,-0.01,-0.01,0.01
8.495196104049683,-0.01,0.0,-0.01,0.01
8.507014036178589,-0.02,0.0,-0.02,0.02
8.518476009368896,-0.01,-0.01,-0.01,0.01
8.526534080505371,-0.01,-0.01,-0.03,0.03
8.536421060562134,-0.01,-0.01,-0.03,0.03
8.545047044754028,-0.01,0.0,0.0,0.01
8.557380199432373,0.0,0.0,-0.01,0.01
8.567291021347046,-0.01,-0.01,-0.03,0.03
8.576030015945435,-0.01,-0.01,-0.02,0.02
8.58668303489685,-0.01,0.0,-0.01,0.01
8.59447193145752,-0.02,-0.01,-0.01,0.02
8.608200073242188,-0.01,0.0,-0.01,0.01
8.617165088653564,-0.02,-0.01,0.0,0.02
8.626534938812256,-0.01,-0.02,-0.02,0.03
8.63655710220337,-0.01,-0.01,-0.03,0.03
8.644565105438232,-0.01,0.0,-0.01,0.01
8.659657955169678,-0.02,-0.01,0.0,0.02
8.666140079498291,-0.01,-0.01,-0.03,0.03
8.675262928009033,-0.01,-0.01,-0.01,0.01
8.684937953948975,-0.02,-0.01,-0.01,0.02
8.69422197341919,0.0,0.0,0.0,0.0
8.704317092895508,-0.01,0.0,0.0,0.01
8.715651035308838,-0.01,-0.01,0.0,0.01
8.725740909576416,-0.01,-0.01,-0.01,0.01
8.738986015319824,-0.01,0.0,-0.01,0.01
8.743380069732666,-0.01,-0.02,-0.01,0.02
8.756227016448975,-0.01,-0.01,-0.02,0.02
8.765664100646973,-0.01,-0.01,-0.01,0.01
8.774410009384155,-0.01,-0.01,-0.01,0.01
8.78738021850586,-0.01,-0.01,-0.01,0.01
8.793609142303467,-0.01,0.0,-0.02,0.02
8.803767204284668,-0.01,-0.01,-0.01,0.01
8.815125942230225,-0.01,-0.02,-0.02,0.03
8.824708938598633,-0.01,-0.01,-0.01,0.01
8.834514141082764,0.0,-0.01,-0.02,0.02
8.843003034591675,-0.01,0.0,0.0,0.01
8.85322618484497,-0.01,-0.01,-0.01,0.01
8.86474895477295,-0.01,-0.01,-0.03,0.03
8.87487506866455,0.0,0.0,-0.01,0.01
8.885507106781006,-0.01,-0.01,-0.02,0.02
8.89234209060669,-0.01,-0.01,-0.02,0.02
8.902597904205322,-0.01,-0.01,-0.02,0.02
8.914515972137451,-0.01,0.0,-0.02,0.02
8.923841953277588,-0.01,-0.01,-0.02,0.02
8.936387062072754,-0.01,-0.01,-0.02,0.02
8.942442893981934,-0.01,0.0,-0.01,0.01
8.952490091323853,-0.01,0.0,-0.02,0.02
8.964391231536865,-0.01,-0.01,-0.02,0.02
8.973933219909668,-0.01,-0.01,-0.01,0.01
8.98786211013794,0.0,-0.01,-0.02,0.02
8.992062091827393,0.0,0.0,-0.01,0.01
9.002477169036865,-0.01,-0.01,0.0,0.01
9.014137029647827,-0.01,-0.02,-0.01,0.02
9.023435115814209,-0.01,0.0,-0.02,0.02
9.035439014434814,-0.01,-0.01,-0.01,0.01
9.041222095489502,-0.01,-0.01,-0.01,0.01
9.051658153533936,-0.01,-0.01,-0.02,0.02
9.063958168029785,-0.01,0.0,-0.03,0.03
9.072904109954834,-0.01,0.0,-0.01,0.01
9.084599018096924,-0.01,0.0,-0.01,0.01
9.09133505821228,-0.01,-0.01,-0.01,0.01
9.104069232940674,-0.01,-0.02,-0.02,0.03
9.11333417892456,0.0,-0.01,0.0,0.01
9.12121295928955,0.0,-0.01,-0.02,0.02
9.131153106689453,-0.01,-0.01,-0.02,0.02
9.143296003341675,0.0,-0.02,-0.01,0.02
9.153876066207886,-0.01,-0.01,-0.02,0.02
9.161281108856201,-0.01,-0.01,-0.02,0.02
9.17323112487793,-0.01,-0.01,-0.01,0.01
9.184539079666138,-0.01,-0.01,0.0,0.01
9.190266132354736,-0.01,-0.01,-0.01,0.01
9.201008081436157,-0.01,0.0,-0.01,0.01
9.211834907531738,-0.01,0.0,-0.01,0.01
9.222405910491943,-0.01,-0.01,-0.01,0.01
9.237024068832397,-0.01,-0.01,-0.02,0.02
9.240140914916992,0.0,-0.01,0.0,0.01
9.250494956970215,0.0,-0.01,-0.01,0.01
9.262217044830322,-0.01,0.0,-0.01,0.01
9.272486209869385,0.0,0.0,-0.02,0.02
9.283926963806152,0.0,-0.01,-0.02,0.02
9.289695024490356,-0.01,-0.01,-0.02,0.02
9.299992084503174,-0.01,-0.01,-0.01,0.01
9.31197214126587,-0.01,0.0,-0.01,0.01
9.322279930114746,-0.01,-0.01,-0.02,0.02
9.334898948669434,-0.01,-0.01,-0.02,0.02
9.339323043823242,-0.02,-0.01,-0.02,0.03
9.353431224822998,-0.01,-0.02,-0.01,0.02
9.361654996871948,0.0,0.0,-0.01,0.01
9.371880054473877,-0.01,-0.01,-0.02,0.02
9.38345193862915,-0.01,-0.01,-0.01,0.01
9.388969898223877,-0.01,0.0,-0.02,0.02
9.398921012878418,-0.01,0.0,-0.02,0.02
9.411829948425293,-0.01,0.0,-0.01,0.01
9.42139196395874,-0.01,-0.01,-0.02,0.02
9.433763027191162,-0.01,-0.01,-0.02,0.02
9.43864917755127,-0.02,-0.01,-0.02,0.03
9.451822996139526,-0.01,0.0,-0.01,0.01
9.458909034729004,-0.01,-0.01,-0.01,0.01
9.471014976501465,-0.01,-0.01,0.0,0.01
9.484422206878662,-0.02,0.0,-0.01,0.02
9.488256931304932,0.0,0.0,-0.01,0.01
9.498618125915527,-0.01,-0.01,-0.01,0.01
9.50968313217163,-0.01,-0.01,-0.01,0.01
9.520318031311035,-0.01,-0.01,-0.01,0.01
9.532989978790283,-0.01,0.0,-0.01,0.01
9.537928104400635,-0.01,0.0,-0.02,0.02
9.550701141357422,-0.01,-0.01,-0.01,0.01
9.558966159820557,-0.01,-0.01,-0.01,0.01
9.569723129272461,-0.01,-0.01,-0.01,0.01
9.58202314376831,-0.01,0.0,-0.02,0.02
9.588012218475342,0.0,0.0,0.0,0.0
9.598464012145996,-0.01,-0.01,-0.01,0.01
9.607940196990967,-0.02,-0.02,-0.01,0.03
9.620643138885498,-0.01,-0.01,-0.01,0.01
9.630707025527954,-0.01,-0.01,-0.02,0.02
9.6374990940094,-0.01,-0.01,-0.01,0.01
9.647531032562256,-0.01,0.0,-0.01,0.01
9.657579898834229,-0.01,-0.01,0.0,0.01
9.67005205154419,-0.01,0.0,-0.01,0.01
9.682009220123291,-0.01,0.0,-0.02,0.02
9.68687391281128,-0.01,0.0,0.0,0.01
9.697535991668701,-0.01,-0.01,-0.01,0.01
9.708931922912598,-0.01,0.0,-0.01,0.01
9.719454050064087,-0.01,-0.01,-0.02,0.02
9.7327299118042,-0.01,-0.01,-0.01,0.01
9.736600875854492,-0.01,0.0,-0.01,0.01
9.747318029403687,0.0,-0.01,-0.01,0.01
9.759140968322754,-0.01,-0.01,-0.02,0.02
9.767642974853516,-0.01,-0.01,-0.02,0.02
9.779376029968262,-0.01,-0.01,-0.01,0.01
9.786270141601562,-0.01,-0.01,-0.01,0.01
9.796708106994629,-0.02,0.0,-0.01,0.02
9.808549880981445,-0.01,-0.01,-0.01,0.01
9.81684923171997,-0.01,-0.01,-0.01,0.01
9.826897144317627,-0.02,-0.01,-0.01,0.02
9.835938930511475,-0.02,0.0,0.0,0.02
9.847352981567383,-0.01,-0.01,-0.01,0.01
9.85732889175415,-0.01,-0.01,-0.02,0.02
9.867542028427124,-0.01,-0.01,-0.01,0.01
9.882280111312866,-0.01,-0.01,-0.02,0.02
9.885609149932861,-0.01,-0.01,-0.01,0.01
9.896074056625366,-0.01,-0.01,-0.01,0.01
9.907932996749878,-0.01,0.0,-0.02,0.02
9.91744613647461,-0.01,-0.01,-0.01,0.01
9.928579092025757,-0.01,-0.01,0.0,0.01
9.935391902923584,-0.02,-0.01,-0.01,0.02
9.94528603553772,-0.02,-0.01,-0.02,0.03
9.958238124847412,-0.01,0.0,-0.01,0.01
9.966836929321289,-0.01,-0.01,-0.01,0.01
9.977428913116455,-0.01,-0.01,-0.01,0.01
9.985796928405762,-0.01,-0.01,-0.02,0.02
9.997465133666992,-0.01,0.0,-0.01,0.01
10.006893157958984,-0.01,-0.01,-0.01,0.01
10.016775131225586,0.0,-0.01,-0.01,0.01
10.028028964996338,-0.01,-0.01,-0.01,0.01
10.034500122070312,-0.01,-0.01,-0.01,0.01
10.046329021453857,-0.01,-0.01,0.0,0.01
10.055056095123291,-0.01,-0.01,0.0,0.01
10.06615400314331,-0.01,-0.01,-0.02,0.02
10.082465171813965,-0.02,0.0,-0.01,0.02
10.084386110305786,-0.01,0.0,-0.01,0.01
10.096745014190674,-0.01,-0.01,-0.02,0.02
10.105755090713501,-0.01,0.0,-0.02,0.02
10.116462230682373,-0.01,0.0,-0.01,0.01
10.128211975097656,-0.01,0.0,-0.01,0.01
10.134488105773926,-0.02,-0.01,0.0,0.02
10.144345045089722,-0.01,-0.01,-0.01,0.01
10.156044960021973,-0.01,-0.01,0.0,0.01
10.166012048721313,-0.01,0.0,-0.01,0.01
10.178827047348022,-0.01,0.0,-0.01,0.01
10.184185981750488,-0.02,-0.01,0.0,0.02
10.196558952331543,-0.01,0.0,-0.01,0.01
10.205403089523315,-0.01,-0.01,-0.01,0.01
10.215656042098999,-0.01,-0.02,-0.01,0.02
10.228868007659912,-0.01,-0.01,-0.02,0.02
10.233723163604736,-0.01,-0.01,-0.01,0.01
10.243618965148926,-0.02,0.0,-0.01,0.02
10.256282091140747,-0.01,-0.01,-0.01,0.01
10.26466703414917,-0.01,-0.01,-0.01,0.01
10.277076005935669,-0.01,-0.01,-0.01,0.01
10.283467054367065,-0.02,-0.01,-0.01,0.02
10.29527997970581,-0.01,0.0,-0.01,0.01
10.305027961730957,-0.01,0.0,-0.02,0.02
10.31502389907837,-0.01,-0.02,-0.01,0.02
10.32735013961792,-0.02,-0.01,-0.01,0.02
10.332834005355835,-0.02,-0.01,-0.01,0.02
10.343116998672485,-0.01,-0.01,-0.01,0.01
10.35397720336914,-0.01,-0.01,-0.01,0.01
10.36539101600647,-0.02,-0.01,-0.02,0.03
10.379290103912354,-0.01,-0.01,-0.01,0.01
10.382214069366455,-0.01,-0.01,-0.01,0.01
10.392845153808594,-0.01,0.0,-0.01,0.01
10.404897212982178,-0.02,-0.01,-0.01,0.02
10.413527965545654,-0.02,0.0,-0.02,0.02
10.424292087554932,-0.01,-0.02,-0.01,0.02
10.43195104598999,-0.01,-0.01,-0.01,0.01
10.443302154541016,-0.01,-0.01,-0.01,0.01
10.45472502708435,-0.01,0.0,0.0,0.01
10.464381217956543,-0.02,0.0,-0.01,0.02
10.47592306137085,-0.01,-0.01,-0.01,0.01
10.48188591003418,-0.01,0.0,-0.02,0.02
10.491864204406738,-0.01,-0.01,-0.01,0.01
10.50422191619873,-0.01,0.0,-0.01,0.01
10.513926029205322,-0.02,-0.01,-0.01,0.02
10.526522159576416,-0.01,-0.01,-0.01,0.01
10.531318187713623,-0.01,0.0,-0.01,0.01
10.541604042053223,-0.01,-0.01,-0.01,0.01
10.554099082946777,-0.01,-0.01,-0.03,0.03
10.563175201416016,-0.01,0.0,-0.01,0.01
10.573631048202515,-0.01,-0.01,-0.01,0.01
10.580982208251953,-0.01,-0.01,0.0,0.01
10.591217041015625,-0.01,-0.01,-0.01,0.01
10.604366064071655,-0.01,0.0,-0.02,0.02
10.61110806465149,-0.01,-0.01,-0.01,0.01
10.620707035064697,-0.01,-0.01,0.0,0.01
10.6318039894104,-0.01,-0.01,0.0,0.01
10.642949104309082,-0.01,-0.01,-0.02,0.02
10.65212106704712,-0.01,-0.01,-0.01,0.01
10.661840915679932,-0.01,0.0,-0.01,0.01
10.674222946166992,-0.01,0.0,-0.01,0.01
10.680869102478027,-0.01,-0.01,-0.01,0.01
10.691978931427002,-0.01,0.0,-0.01,0.01
10.701464176177979,-0.01,0.0,-0.01,0.01
10.711924076080322,-0.01,0.0,-0.01,0.01
10.729300022125244,-0.01,-0.01,-0.02,0.02
10.730427026748657,-0.02,-0.01,-0.01,0.02
10.740238189697266,-0.02,0.0,-0.01,0.02
10.753534078598022,0.0,-0.01,-0.01,0.01
10.761632919311523,-0.01,-0.01,-0.01,0.01
10.774415016174316,-0.02,-0.01,-0.01,0.02
10.7795090675354,-0.01,-0.01,-0.01,0.01
10.789715051651001,-0.02,-0.01,-0.01,0.02
10.801423072814941,-0.02,-0.01,-0.01,0.02
10.811825037002563,-0.01,-0.01,-0.01,0.01
10.827022075653076,-0.01,-0.02,0.0,0.02
10.829216003417969,-0.01,-0.01,-0.01,0.01
10.84131407737732,-0.01,-0.01,0.0,0.01
10.852102994918823,-0.01,0.0,-0.01,0.01
10.859469890594482,-0.02,-0.01,-0.02,0.03
10.869209051132202,-0.02,-0.01,-0.01,0.02
10.879323959350586,-0.01,-0.01,-0.01,0.01
10.889190196990967,0.0,-0.01,-0.01,0.01
10.901892185211182,-0.01,-0.01,0.0,0.01
10.910799980163574,-0.01,0.0,-0.01,0.01
10.922173023223877,-0.01,-0.01,-0.01,0.01
10.928405046463013,-0.01,-0.01,-0.01,0.01
10.938783168792725,-0.01,-0.01,-0.01,0.01
10.951064109802246,-0.01,0.0,-0.01,0.01
10.961061000823975,-0.02,-0.01,-0.01,0.02
10.974531173706055,-0.01,-0.01,-0.01,0.01
10.978371143341064,-0.01,-0.01,0.0,0.01
10.988648891448975,-0.01,-0.01,-0.01,0.01
10.999886989593506,-0.01,-0.01,-0.01,0.01
11.010712146759033,-0.01,-0.01,-0.02,0.02
11.025604009628296,-0.01,-0.01,-0.01,0.01
11.027733087539673,-0.01,0.0,-0.01,0.01
11.039854049682617,-0.01,-0.01,-0.01,0.01
11.04955005645752,-0.02,-0.01,-0.01,0.02
11.059714078903198,-0.01,0.0,-0.01,0.01
11.071139097213745,-0.01,-0.01,-0.01,0.01
11.077281951904297,-0.01,-0.01,-0.01,0.01
11.087687015533447,-0.01,0.0,-0.01,0.01
11.099098205566406,-0.01,0.0,-0.01,0.01
11.108885049819946,-0.01,0.0,-0.01,0.01
11.122904062271118,-0.01,-0.01,-0.02,0.02
11.127307891845703,-0.01,-0.01,-0.01,0.01
11.137469053268433,-0.01,-0.01,-0.01,0.01
11.150109052658081,-0.01,0.0,-0.02,0.02
11.158569097518921,-0.01,0.0,-0.01,0.01
11.167409896850586,-0.02,-0.01,0.0,0.02
11.177083969116211,-0.01,0.0,-0.01,0.01
11.187427997589111,-0.01,-0.01,-0.02,0.02
11.199690103530884,-0.01,0.0,-0.01,0.01
11.208539962768555,-0.01,-0.01,-0.01,0.01
11.221135139465332,-0.01,0.0,-0.02,0.02
11.226466178894043,-0.01,-0.01,0.0,0.01
11.241383075714111,-0.01,-0.01,-0.02,0.02
11.24866509437561,-0.01,-0.01,-0.01,0.01
11.258159160614014,-0.01,-0.01,-0.02,0.02
11.27022910118103,-0.01,0.0,-0.01,0.01
11.276493072509766,-0.01,0.0,0.0,0.01
11.291109085083008,-0.02,-0.01,-0.02,0.03
11.296025037765503,-0.02,-0.01,-0.02,0.03
11.309247016906738,-0.01,0.0,-0.01,0.01
11.321048021316528,-0.01,-0.01,0.0,0.01
11.326159954071045,-0.01,0.0,-0.01,0.01
11.341249942779541,-0.01,-0.01,-0.01,0.01
11.345975875854492,0.0,-0.01,-0.02,0.02
11.35758900642395,-0.01,-0.01,-0.01,0.01
11.367995023727417,-0.01,-0.01,0.0,0.01
11.375572204589844,0.0,-0.01,-0.01,0.01
11.38540506362915,-0.02,0.0,-0.01,0.02
11.397109985351562,-0.01,0.0,-0.02,0.02
11.407281875610352,-0.01,-0.01,-0.01,0.01
11.417702198028564,-0.01,-0.01,-0.01,0.01
11.425190925598145,-0.02,0.0,-0.01,0.02
11.439732074737549,-0.01,0.0,0.0,0.01
11.446161031723022,-0.01,0.0,0.0,0.01
11.454747200012207,-0.01,-0.01,-0.01,0.01
11.464568138122559,-0.01,-0.01,-0.01,0.01
11.47651195526123,-0.02,0.0,-0.01,0.02
11.486324071884155,-0.01,-0.01,-0.02,0.02
11.495763063430786,-0.01,-0.01,0.0,0.01
11.505584001541138,-0.01,0.0,0.0,0.01
11.521351099014282,-0.01,-0.01,-0.01,0.01
11.5243558883667,-0.01,-0.01,-0.02,0.02
11.535890102386475,-0.01,0.0,-0.01,0.01
11.545300960540771,-0.01,-0.01,-0.01,0.01
11.557204008102417,-0.02,0.0,-0.01,0.02
11.568686962127686,-0.01,0.0,-0.02,0.02
11.574146032333374,-0.02,0.0,-0.01,0.02
11.585692882537842,-0.02,-0.01,0.0,0.02
11.59603214263916,-0.01,0.0,-0.01,0.01
11.605581998825073,-0.01,-0.01,-0.02,0.02
11.614395141601562,-0.01,-0.01,0.0,0.01
11.624606132507324,-0.01,-0.01,-0.01,0.01
11.636763095855713,-0.02,-0.01,-0.01,0.02
11.644969940185547,-0.02,-0.02,-0.01,0.03
11.655137062072754,-0.01,-0.02,-0.01,0.02
11.668190956115723,-0.01,-0.01,-0.02,0.02
11.673176050186157,-0.02,0.0,-0.01,0.02
11.685771942138672,-0.01,0.0,0.0,0.01
11.694089889526367,-0.01,0.0,0.0,0.01
11.705053091049194,-0.01,-0.01,-0.01,0.01
11.719937086105347,-0.01,0.0,-0.01,0.01
11.720911026000977,0.0,-0.01,0.0,0.01
11.729270935058594,-0.01,0.0,0.0,0.01
11.739439964294434,-0.01,0.0,-0.01,0.01
11.752478122711182,-0.01,0.0,-0.02,0.02
11.764062881469727,-0.01,0.0,-0.01,0.01
11.769164085388184,-0.01,0.0,-0.01,0.01
11.779315948486328,-0.01,-0.01,-0.02,0.02
11.791441917419434,-0.01,0.0,-0.01,0.01
11.801698207855225,-0.01,-0.01,-0.01,0.01
11.812433004379272,-0.01,-0.01,-0.01,0.01
11.818769931793213,-0.01,-0.01,-0.01,0.01
11.828832149505615,-0.02,-0.01,-0.01,0.02
11.841129064559937,-0.01,0.0,0.0,0.01
11.851380109786987,-0.02,-0.01,-0.01,0.02
11.864134073257446,-0.01,0.0,-0.01,0.01
11.86830997467041,0.0,-0.01,-0.01,0.01
11.878438949584961,-0.01,-0.01,-0.01,0.01
11.890196084976196,-0.01,0.0,-0.01,0.01
11.900268077850342,-0.01,0.01,-0.01,0.01
11.911591053009033,-0.01,0.0,-0.01,0.01
11.918395042419434,-0.01,-0.01,-0.01,0.01
11.927812099456787,-0.01,-0.01,-0.01,0.01
11.939784049987793,-0.01,0.0,-0.01,0.01
11.95008897781372,-0.01,-0.01,0.0,0.01
11.962349891662598,-0.02,-0.01,-0.01,0.02
11.96778917312622,-0.02,-0.01,-0.01,0.02
11.977825164794922,-0.01,-0.02,0.0,0.02
11.990754127502441,0.0,-0.01,0.0,0.01
11.99966812133789,-0.01,-0.01,-0.01,0.01
12.012472152709961,-0.01,-0.01,-0.01,0.01
12.017436027526855,0.0,-0.01,-0.01,0.01
12.027321100234985,0.0,0.0,-0.01,0.01
12.039773941040039,-0.02,-0.01,-0.01,0.02
12.048749923706055,-0.01,-0.01,-0.01,0.01
12.059684038162231,-0.01,0.0,-0.01,0.01
12.067069053649902,-0.01,0.0,-0.01,0.01
12.07720422744751,-0.01,-0.01,0.0,0.01
12.088036060333252,-0.01,-0.01,0.0,0.01
12.098592042922974,-0.01,0.0,0.0,0.01
12.111510038375854,-0.01,0.0,-0.02,0.02
12.116611003875732,-0.01,0.0,-0.01,0.01
12.12854814529419,-0.01,0.0,0.0,0.01
12.13804292678833,-0.01,-0.01,-0.01,0.01
12.148180961608887,-0.02,-0.01,-0.01,0.02
12.160109996795654,-0.01,0.0,-0.01,0.01
12.166285991668701,-0.01,0.0,-0.02,0.02
12.176528930664062,0.0,0.0,-0.01,0.01
12.187843084335327,0.0,0.0,0.0,0.0
12.198163032531738,-0.01,0.0,-0.02,0.02
12.210028171539307,-0.01,0.0,-0.02,0.02
12.21592092514038,-0.01,-0.02,-0.01,0.02
12.226375102996826,-0.01,-0.01,-0.02,0.02
12.242573022842407,-0.02,0.0,-0.01,0.02
12.252064228057861,-0.02,-0.01,0.0,0.02
12.266362190246582,-0.01,-0.01,-0.01,0.01
12.269428014755249,-0.01,-0.01,-0.02,0.02
12.279826164245605,-0.01,-0.01,-0.01,0.01
12.291346073150635,-0.01,-0.01,0.0,0.01
12.301050186157227,-0.01,-0.01,-0.01,0.01
12.312536001205444,-0.01,0.0,-0.02,0.02
12.319461107254028,-0.01,0.0,0.0,0.01
12.329272031784058,-0.01,0.0,0.0,0.01
12.341737031936646,-0.01,-0.01,-0.02,0.02
12.35024118423462,-0.01,-0.01,-0.02,0.02
12.363138198852539,-0.01,0.0,0.01,0.01
12.36876106262207,-0.01,0.01,0.0,0.01
12.379300117492676,-0.01,0.0,-0.01,0.01
12.390886068344116,0.0,-0.01,-0.01,0.01
12.400635004043579,-0.01,0.0,-0.01,0.01
12.410943984985352,-0.01,-0.01,0.0,0.01
12.418694019317627,-0.02,-0.01,0.0,0.02
12.428986072540283,-0.01,-0.01,-0.01,0.01
12.44085693359375,-0.01,-0.01,0.0,0.01
12.449668884277344,-0.01,-0.01,0.0,0.01
12.461302995681763,-0.01,0.0,-0.01,0.01
12.468619108200073,-0.02,0.0,-0.02,0.02
12.480527877807617,-0.01,0.0,-0.01,0.01
12.48767900466919,-0.01,0.0,-0.01,0.01
12.499887943267822,-0.02,0.0,-0.01,0.02
12.510173082351685,0.0,-0.01,-0.01,0.01
12.517985105514526,-0.01,0.0,-0.01,0.01
12.528040885925293,-0.01,-0.01,-0.01,0.01
12.539568901062012,-0.01,-0.01,-0.01,0.01
12.550106048583984,-0.01,0.0,-0.01,0.01
12.564591884613037,-0.01,-0.01,-0.02,0.02
12.567583084106445,-0.01,-0.01,-0.01,0.01
12.57801103591919,-0.02,0.0,-0.01,0.02
12.59014105796814,-0.01,0.0,-0.01,0.01
12.598443031311035,-0.01,0.0,-0.01,0.01
12.609378099441528,-0.01,-0.01,-0.01,0.01
12.617053031921387,-0.01,0.0,-0.01,0.01
12.627476215362549,-0.01,-0.01,-0.01,0.01
12.640050888061523,-0.01,0.0,-0.02,0.02
12.648248195648193,-0.01,0.0,-0.02,0.02
12.66059398651123,-0.01,-0.01,-0.02,0.02
12.666829109191895,-0.01,0.0,-0.01,0.01
12.676935195922852,-0.01,-0.01,-0.02,0.02
12.68986988067627,-0.01,0.0,-0.01,0.01
12.698811054229736,-0.02,-0.01,-0.01,0.02
12.70998501777649,-0.02,0.0,0.0,0.02
12.716546058654785,-0.02,0.0,-0.01,0.02
12.726702213287354,-0.02,0.0,-0.01,0.02
12.738644123077393,-0.02,-0.01,-0.01,0.02
12.74808406829834,-0.01,-0.01,-0.01,0.01
12.758553981781006,-0.01,0.0,-0.01,0.01
12.766125202178955,-0.01,0.0,-0.01,0.01
12.778080940246582,-0.01,-0.01,-0.01,0.01
12.78880500793457,-0.02,0.0,-0.01,0.02
12.79797887802124,-0.01,0.0,-0.01,0.01
12.81045913696289,-0.01,-0.01,-0.01,0.01
12.81578803062439,-0.01,-0.01,-0.01,0.01
12.825928211212158,-0.02,-0.01,-0.02,0.03
12.837934970855713,-0.01,0.0,-0.02,0.02
12.847701072692871,-0.01,0.0,0.0,0.01
12.861516952514648,-0.01,0.0,-0.02,0.02
12.86537790298462,-0.01,-0.01,-0.01,0.01
12.875253200531006,-0.01,-0.02,-0.02,0.03
12.887915134429932,-0.01,-0.01,-0.01,0.01
12.8974130153656,-0.01,0.0,-0.02,0.02
12.907915115356445,-0.01,-0.01,-0.01,0.01
12.915224075317383,-0.02,0.0,-0.01,0.02
12.92481517791748,-0.02,0.0,0.0,0.02
12.937815189361572,-0.01,-0.01,-0.01,0.01
12.947064876556396,-0.02,0.0,0.0,0.02
12.958414077758789,-0.02,0.0,-0.02,0.02
12.96493911743164,-0.01,-0.02,-0.02,0.03
12.975025177001953,-0.01,-0.01,0.0,0.01
12.987078189849854,-0.01,-0.01,-0.01,0.01
12.996786117553711,-0.02,0.0,0.01,0.02
13.009809970855713,-0.02,0.0,-0.01,0.02
13.01437520980835,-0.01,-0.01,-0.01,0.01
13.0245361328125,-0.01,0.0,-0.01,0.01
13.034718036651611,-0.01,-0.01,-0.02,0.02
13.048274993896484,-0.02,0.0,-0.01,0.02
13.060043096542358,-0.01,0.0,-0.01,0.01
13.064104080200195,-0.01,-0.01,-0.01,0.01
13.07414197921753,-0.01,0.0,-0.01,0.01
13.084556102752686,-0.02,-0.01,-0.02,0.03
13.096270084381104,-0.01,-0.01,-0.02,0.02
13.111181020736694,-0.01,0.0,-0.01,0.01
13.113512992858887,-0.01,0.0,-0.01,0.01
13.12379789352417,-0.01,0.0,-0.02,0.02
13.136709213256836,-0.01,-0.01,-0.01,0.01
13.145061016082764,-0.01,-0.01,0.0,0.01
13.157172203063965,-0.02,-0.01,-0.01,0.02
13.163235187530518,0.0,-0.01,-0.01,0.01
13.173604011535645,-0.02,-0.02,-0.01,0.03
13.18387508392334,-0.02,-0.01,-0.01,0.02
13.196023941040039,-0.01,-0.01,-0.01,0.01
13.208497047424316,-0.02,-0.01,-0.01,0.02
13.212948083877563,-0.01,0.0,-0.01,0.01
13.22343111038208,-0.01,-0.01,-0.01,0.01
13.234416007995605,-0.01,-0.01,-0.01,0.01
13.244646072387695,-0.01,-0.01,-0.01,0.01
13.25721788406372,-0.01,0.0,-0.02,0.02
13.262796878814697,-0.02,0.0,-0.01,0.02
13.272833108901978,-0.01,-0.01,-0.01,0.01
13.28529691696167,-0.01,-0.01,-0.02,0.02
13.292654991149902,-0.01,0.0,-0.02,0.02
13.302573204040527,-0.02,0.0,-0.02,0.02
13.313031196594238,-0.01,0.0,0.0,0.01
13.32474422454834,-0.01,-0.01,-0.01,0.01
13.333647012710571,-0.01,-0.01,-0.01,0.01
13.344886064529419,-0.01,0.0,-0.01,0.01
13.359214067459106,-0.01,-0.01,-0.01,0.01
13.361926078796387,-0.01,0.0,-0.01,0.01
13.373813152313232,-0.01,0.0,-0.01,0.01
13.384610176086426,-0.01,-0.01,-0.02,0.02
13.39372706413269,-0.01,0.0,-0.01,0.01
13.404795169830322,-0.01,-0.01,-0.01,0.01
13.4115309715271,-0.01,-0.01,-0.01,0.01
13.42169713973999,-0.02,0.0,-0.01,0.02
13.434490203857422,-0.01,0.0,0.0,0.01
13.442881107330322,-0.01,0.0,-0.02,0.02
13.454617023468018,-0.01,-0.01,-0.01,0.01
13.461459159851074,-0.01,-0.01,-0.01,0.01
13.471405029296875,-0.01,0.0,0.0,0.01
13.483988046646118,-0.02,-0.01,-0.01,0.02
13.49306607246399,-0.01,-0.01,-0.02,0.02
13.50461196899414,-0.01,-0.01,0.0,0.01
13.511168956756592,-0.02,-0.01,0.0,0.02
13.521125078201294,-0.01,-0.01,0.0,0.01
13.53095006942749,-0.01,0.0,0.0,0.01
13.543539047241211,-0.02,-0.01,-0.01,0.02
13.555723190307617,-0.02,-0.01,-0.01,0.02
13.5610671043396,-0.01,0.01,-0.01,0.01
13.573328018188477,-0.01,0.0,-0.02,0.02
13.582204103469849,-0.01,0.0,0.0,0.01
13.591828107833862,-0.01,0.0,0.0,0.01
13.604044914245605,-0.01,-0.01,-0.01,0.01
13.610328197479248,-0.01,0.0,-0.01,0.01
13.62034010887146,-0.01,0.0,-0.01,0.01
13.63309621810913,-0.02,0.01,-0.01,0.02
13.642203092575073,-0.02,0.0,-0.01,0.02
13.655454158782959,-0.01,0.0,-0.01,0.01
13.660181999206543,-0.01,0.0,-0.01,0.01
13.670207023620605,-0.02,0.0,-0.02,0.02
13.68244218826294,-0.01,-0.01,-0.02,0.02
13.69160509109497,-0.01,-0.01,0.0,0.01
13.703649997711182,-0.01,0.0,-0.01,0.01
13.709642887115479,-0.01,0.0,-0.02,0.02
13.719865083694458,-0.01,-0.01,0.0,0.01
13.73215103149414,-0.02,0.0,0.0,0.02
13.741333961486816,-0.01,-0.01,-0.01,0.01
13.75438904762268,-0.02,0.0,0.0,0.02
13.75938892364502,-0.01,-0.01,-0.01,0.01
13.774327039718628,-0.01,0.0,-0.01,0.01
13.77944302558899,-0.01,0.0,-0.01,0.01
13.791007041931152,-0.01,0.0,-0.01,0.01
13.803675174713135,-0.01,-0.01,0.0,0.01
13.80886697769165,-0.01,-0.01,0.0,0.01
13.819074153900146,-0.01,-0.01,-0.01,0.01
13.83154296875,-0.02,-0.01,-0.02,0.03
13.838913917541504,-0.02,0.0,-0.02,0.02
13.849009037017822,-0.01,-0.01,-0.01,0.01
13.858968019485474,-0.01,0.0,-0.02,0.02
13.869072914123535,-0.01,-0.01,-0.01,0.01
13.879684925079346,-0.01,-0.01,-0.01,0.01
13.88984489440918,-0.01,-0.01,-0.01,0.01
13.902919054031372,-0.01,0.0,0.0,0.01
13.908339023590088,-0.01,-0.01,0.0,0.01
13.91881513595581,-0.01,0.0,-0.02,0.02
13.93094801902771,-0.02,0.0,0.0,0.02
13.94024109840393,-0.01,0.0,-0.01,0.01
13.95183801651001,-0.01,-0.01,-0.01,0.01
13.957881927490234,-0.01,-0.01,-0.01,0.01
13.968399047851562,-0.02,-0.01,-0.01,0.02
13.979255199432373,-0.02,-0.01,-0.01,0.02
13.990365028381348,-0.01,-0.01,0.0,0.01
14.00524091720581,-0.02,0.0,-0.02,0.02
14.007721900939941,-0.01,-0.01,-0.02,0.02
14.024097919464111,-0.02,0.0,-0.01,0.02
14.029396057128906,-0.02,-0.01,-0.01,0.02
14.040493965148926,-0.01,-0.01,-0.01,0.01
14.054611206054688,-0.01,-0.01,-0.01,0.01
14.057141065597534,-0.01,-0.01,-0.01,0.01
14.067080974578857,-0.01,-0.01,-0.01,0.01
14.079288959503174,-0.01,0.0,-0.01,0.01
14.089016914367676,-0.01,0.0,-0.02,0.02
14.102123022079468,-0.01,-0.01,-0.01,0.01
14.107029914855957,-0.01,-0.01,-0.01,0.01
14.116998195648193,0.0,0.0,-0.02,0.02
14.12934398651123,-0.02,-0.01,-0.01,0.02
14.137119054794312,-0.01,0.0,-0.01,0.01
14.147473096847534,-0.01,0.0,-0.02,0.02
14.156967163085938,-0.02,-0.01,-0.01,0.02
14.167059898376465,-0.02,-0.02,-0.02,0.03
14.179434061050415,-0.01,-0.01,-0.01,0.01
14.18871021270752,-0.02,0.0,-0.01,0.02
14.19788908958435,0.0,0.0,-0.02,0.02
14.206456184387207,0.0,-0.01,-0.01,0.01
14.21640396118164,-0.01,0.0,-0.02,0.02
14.226336002349854,-0.01,0.0,-0.01,0.01
14.239116191864014,-0.01,-0.02,-0.02,0.03
14.250463008880615,-0.01,-0.01,-0.01,0.01
14.255955219268799,-0.01,-0.01,0.0,0.01
14.266042232513428,-0.01,0.0,-0.02,0.02
14.27583122253418,-0.01,0.0,-0.02,0.02
14.288966178894043,-0.01,-0.01,-0.01,0.01
14.303664207458496,-0.01,-0.01,0.0,0.01
14.30563497543335,-0.02,0.0,-0.01,0.02
14.324055194854736,-0.01,0.0,-0.01,0.01
14.32571792602539,-0.02,0.0,-0.01,0.02
14.337670087814331,-0.01,0.0,-0.01,0.01
14.350220203399658,0.0,0.0,-0.02,0.02
14.355484962463379,-0.02,-0.01,0.0,0.02
14.365321159362793,-0.01,0.0,0.0,0.01
14.375378131866455,-0.01,0.0,0.0,0.01
14.386849880218506,-0.01,0.0,-0.01,0.01
14.399893045425415,-0.02,-0.01,0.0,0.02
14.405037879943848,0.0,-0.01,0.0,0.01
14.414951086044312,-0.01,-0.01,0.0,0.01
14.427255153656006,-0.02,0.0,-0.01,0.02
14.436898231506348,-0.02,-0.01,-0.01,0.02
14.449601173400879,-0.01,-0.01,-0.01,0.01
14.454411029815674,-0.01,0.0,-0.01,0.01
14.464530944824219,-0.01,-0.01,-0.01,0.01
14.474684000015259,-0.01,-0.01,-0.01,0.01
14.48669719696045,-0.01,0.0,-0.01,0.01
14.499109029769897,-0.02,-0.01,-0.01,0.02
14.504546165466309,-0.02,0.0,0.0,0.02
14.514302015304565,-0.02,-0.01,-0.01,0.02
14.52642011642456,-0.01,-0.01,-0.02,0.02
14.535458087921143,-0.01,-0.01,-0.02,0.02
14.549124002456665,0.0,-0.01,-0.02,0.02
14.553816080093384,-0.01,0.0,-0.01,0.01
14.563913106918335,-0.01,0.0,-0.01,0.01
14.57544207572937,-0.01,-0.01,-0.01,0.01
14.586245059967041,-0.01,0.0,-0.01,0.01
14.601809024810791,-0.01,0.0,0.0,0.01
14.603565216064453,0.0,-0.01,-0.01,0.01
14.613640069961548,-0.02,0.0,-0.02,0.02
14.625956058502197,-0.01,-0.01,-0.01,0.01
14.635327100753784,-0.01,-0.01,0.0,0.01
14.646420955657959,-0.01,0.0,0.0,0.01
14.653456211090088,-0.01,-0.01,-0.01,0.01
14.663435935974121,-0.02,-0.01,-0.01,0.02
14.675445079803467,-0.02,0.0,-0.01,0.02
14.685311079025269,-0.01,0.0,0.0,0.01
14.700714111328125,-0.01,-0.01,-0.01,0.01
14.702769041061401,-0.01,-0.01,-0.01,0.01
14.713222026824951,-0.01,-0.01,0.0,0.01
14.725924968719482,-0.01,0.0,-0.01,0.01
14.734766960144043,-0.01,0.0,0.0,0.01
14.745985984802246,-0.01,0.0,-0.01,0.01
14.752857208251953,-0.02,-0.01,-0.01,0.02
14.763046026229858,-0.01,-0.01,0.0,0.01
14.774539947509766,-0.02,-0.01,0.0,0.02
14.784776210784912,-0.01,-0.01,0.0,0.01
14.798082113265991,-0.02,-0.01,0.0,0.02
14.8022620677948,-0.02,-0.01,-0.02,0.03
14.812332153320312,-0.02,-0.02,-0.01,0.03
14.82490611076355,-0.01,-0.01,0.0,0.01
14.83223295211792,-0.01,-0.01,-0.01,0.01
14.842493057250977,-0.01,0.0,-0.01,0.01
14.851980209350586,-0.01,-0.01,0.0,0.01
14.862060070037842,-0.01,-0.01,0.0,0.01
14.874425888061523,-0.02,0.0,0.0,0.02
14.883640050888062,-0.02,0.0,-0.01,0.02
14.898240089416504,-0.02,-0.01,-0.01,0.02
14.901693105697632,-0.01,-0.01,0.0,0.01
14.912396907806396,-0.01,-0.01,-0.01,0.01
14.92376708984375,-0.01,0.0,-0.01,0.01
14.933370113372803,-0.01,-0.01,-0.01,0.01
14.946211099624634,-0.01,0.0,-0.01,0.01
14.951507091522217,-0.01,0.0,-0.02,0.02
14.961330890655518,-0.01,0.0,0.0,0.01
14.972901105880737,-0.01,0.0,-0.01,0.01
14.982677936553955,-0.01,0.0,-0.01,0.01
14.99670696258545,-0.02,-0.01,-0.01,0.02
15.000962018966675,-0.01,0.0,0.0,0.01
15.010952949523926,-0.01,0.0,-0.01,0.01
15.021138191223145,-0.01,0.0,-0.01,0.01
15.033041000366211,-0.01,-0.01,-0.01,0.01
15.047835111618042,-0.01,0.0,0.0,0.01
15.050384998321533,-0.01,-0.01,-0.01,0.01
15.060718059539795,-0.01,-0.01,0.0,0.01
15.072803020477295,-0.01,-0.01,-0.02,0.02
15.082362174987793,-0.01,0.0,-0.02,0.02
15.09455919265747,0.0,0.0,-0.01,0.01
15.100398063659668,-0.01,-0.01,-0.01,0.01
15.110348224639893,-0.02,-0.01,-0.02,0.03
15.12087607383728,-0.01,0.0,-0.01,0.01
15.132758140563965,-0.01,-0.01,0.0,0.01
15.147317886352539,-0.01,0.0,-0.02,0.02
15.14989709854126,-0.01,-0.01,-0.01,0.01
15.159833908081055,-0.01,-0.01,-0.01,0.01
15.170186042785645,-0.01,0.0,-0.01,0.01
15.182536125183105,-0.01,-0.01,-0.02,0.02
15.197158098220825,-0.01,-0.01,0.0,0.01
15.199475049972534,0.0,-0.01,-0.01,0.01
15.209658145904541,-0.01,0.0,-0.01,0.01
15.222034931182861,-0.01,-0.02,0.0,0.02
15.231467008590698,-0.02,-0.01,-0.01,0.02
15.244858026504517,-0.02,0.0,-0.02,0.02
15.249053955078125,-0.01,0.0,0.0,0.01
15.259104013442993,-0.01,0.0,0.0,0.01
15.269388198852539,-0.01,-0.01,0.0,0.01
15.281668186187744,-0.01,0.0,-0.01,0.01
15.292392015457153,-0.01,-0.01,-0.01,0.01
15.298732995986938,-0.01,-0.01,-0.01,0.01
15.308967113494873,-0.01,0.0,0.0,0.01
15.320158958435059,-0.01,0.0,0.0,0.01
15.330847024917603,-0.01,0.0,-0.01,0.01
15.34513807296753,-0.02,-0.01,-0.01,0.02
15.34848403930664,-0.01,-0.01,0.0,0.01
15.358785152435303,-0.02,0.0,-0.01,0.02
15.3697190284729,-0.02,0.0,-0.01,0.02
15.381066083908081,-0.01,-0.01,-0.01,0.01
15.395313024520874,-0.01,-0.01,-0.01,0.01
15.39790391921997,-0.01,-0.01,-0.02,0.02
15.408341884613037,-0.01,-0.01,0.0,0.01
15.420335054397583,-0.01,0.0,0.01,0.01
15.429924964904785,-0.01,0.0,-0.01,0.01
15.442946910858154,-0.02,-0.01,-0.01,0.02
15.44773006439209,-0.01,-0.01,0.0,0.01
15.45789909362793,-0.01,0.0,0.0,0.01
15.470192909240723,-0.01,0.0,-0.01,0.01
15.47909688949585,-0.01,0.0,-0.01,0.01
15.492400169372559,-0.02,0.0,-0.01,0.02
15.497488021850586,-0.01,0.0,-0.01,0.01
15.507646083831787,0.0,-0.01,-0.01,0.01
15.518961906433105,0.0,-0.01,-0.01,0.01
15.529531955718994,-0.01,-0.01,-0.01,0.01
15.544364929199219,-0.02,0.0,-0.01,0.02
15.547214984893799,-0.01,0.0,0.0,0.01
15.557022094726562,-0.01,-0.01,0.0,0.01
15.569375038146973,-0.01,-0.01,-0.01,0.01
15.5781569480896,-0.01,-0.01,-0.01,0.01
15.590362071990967,-0.02,0.0,-0.02,0.02
15.5968918800354,-0.01,0.0,-0.01,0.01
15.606872081756592,-0.01,0.0,-0.02,0.02
15.619744062423706,0.0,-0.01,-0.01,0.01
15.62820291519165,-0.01,-0.01,-0.01,0.01
15.64113187789917,-0.01,0.0,-0.01,0.01
15.64649510383606,-0.01,-0.01,-0.01,0.01
15.656450033187866,-0.01,0.0,-0.01,0.01
15.669591903686523,-0.02,-0.01,0.0,0.02
15.678143978118896,-0.01,-0.01,-0.01,0.01
15.68992304801941,-0.01,0.0,0.0,0.01
15.695977210998535,-0.01,0.0,0.01,0.01
15.705840110778809,-0.01,0.0,-0.01,0.01
15.720238208770752,0.0,-0.01,-0.02,0.02
15.723444938659668,-0.01,0.0,0.0,0.01
15.732067108154297,-0.01,0.0,0.01,0.01
15.74208402633667,-0.01,0.0,0.0,0.01
15.751842975616455,-0.01,0.0,-0.01,0.01
15.764076232910156,-0.01,-0.01,0.0,0.01
15.773731231689453,-0.02,-0.01,0.0,0.02
15.786351203918457,-0.01,-0.01,-0.01,0.01
15.791554927825928,-0.01,0.0,-0.01,0.01
15.801454067230225,-0.01,0.0,0.0,0.01
15.812021017074585,-0.01,-0.01,-0.01,0.01
15.823613166809082,-0.01,-0.01,0.0,0.01
15.838929176330566,-0.01,-0.02,0.0,0.02
15.841331005096436,-0.01,-0.01,-0.01,0.01
15.851393222808838,-0.02,-0.01,-0.01,0.02
15.861546993255615,-0.01,-0.01,-0.01,0.01
15.873399019241333,0.0,0.0,-0.01,0.01
15.885503053665161,-0.01,-0.01,0.0,0.01
15.890975952148438,-0.02,-0.01,0.0,0.02
15.90704607963562,-0.01,-0.01,0.0,0.01
15.912724018096924,-0.01,0.0,0.0,0.01
15.922753095626831,-0.01,-0.01,-0.01,0.01
15.935602188110352,-0.01,0.0,-0.01,0.01
15.940592050552368,-0.01,0.0,-0.02,0.02
15.950762033462524,0.0,-0.01,-0.01,0.01
15.960832118988037,-0.01,-0.01,-0.01,0.01
15.973491191864014,-0.01,0.0,0.0,0.01
15.985191106796265,-0.01,-0.01,0.0,0.01
15.990155220031738,-0.01,-0.01,0.0,0.01
16.000380992889404,-0.02,-0.01,-0.01,0.02
16.012167930603027,-0.01,-0.01,-0.01,0.01
16.022253036499023,-0.01,-0.01,0.0,0.01
16.0365309715271,-0.02,-0.01,0.0,0.02
16.040040016174316,-0.01,0.0,0.0,0.01
16.04994297027588,0.0,-0.01,0.0,0.01
16.060236930847168,-0.01,0.0,-0.01,0.01
16.071574211120605,-0.01,-0.01,-0.01,0.01
16.085142135620117,-0.01,0.0,-0.01,0.01
16.089569091796875,0.0,0.0,-0.02,0.02
16.09963607788086,-0.01,0.0,0.0,0.01
16.109856128692627,-0.01,-0.01,-0.01,0.01
16.120977878570557,-0.01,-0.01,-0.01,0.01
16.136523008346558,-0.01,0.0,-0.01,0.01
16.13916015625,-0.01,-0.01,-0.01,0.01
16.149195194244385,-0.01,-0.01,0.0,0.01
16.16144895553589,-0.01,-0.01,0.01,0.01
16.17146611213684,-0.01,0.0,-0.01,0.01
16.185297966003418,-0.01,0.0,-0.01,0.01
16.18921995162964,0.0,-0.01,-0.01,0.01
16.1989688873291,-0.01,0.0,0.0,0.01
16.20942211151123,-0.02,-0.01,-0.01,0.02
16.22134804725647,-0.01,0.0,-0.01,0.01
16.236403942108154,-0.01,-0.01,-0.01,0.01
16.238646984100342,-0.02,0.0,-0.01,0.02
16.25617218017578,0.0,0.0,-0.01,0.01
16.258699893951416,-0.01,0.0,0.01,0.01
16.271074056625366,-0.02,0.0,0.0,0.02
16.28391695022583,-0.02,-0.01,0.0,0.02
16.291122913360596,-0.01,-0.01,0.0,0.01
16.300978183746338,-0.01,-0.01,-0.02,0.02
16.312971115112305,-0.01,-0.01,0.0,0.01
16.321702003479004,-0.01,-0.01,0.0,0.01
16.33401608467102,-0.01,-0.01,0.0,0.01
16.341005086898804,-0.02,0.0,-0.01,0.02
16.3505859375,-0.02,0.0,0.0,0.02
16.3630108833313,-0.01,-0.01,0.01,0.01
16.372519969940186,-0.01,-0.02,0.0,0.02
16.386547088623047,-0.01,-0.01,-0.01,0.01
16.39021396636963,-0.01,-0.01,0.0,0.01
16.40645122528076,-0.01,-0.01,-0.01,0.01
16.41065502166748,0.0,-0.01,0.0,0.01
16.42474889755249,-0.01,-0.01,0.0,0.01
16.438399076461792,-0.01,-0.01,-0.01,0.01
16.439781188964844,-0.01,-0.01,0.0,0.01
16.450170040130615,-0.02,0.0,0.0,0.02
16.462115049362183,-0.01,-0.01,0.0,0.01
16.471373081207275,-0.01,0.0,-0.01,0.01
16.484113216400146,-0.02,-0.01,0.0,0.02
16.489952087402344,0.0,-0.02,-0.01,0.02
16.499757051467896,-0.01,-0.01,-0.01,0.01
16.50997495651245,-0.01,-0.01,0.0,0.01
16.522068977355957,-0.02,-0.01,0.0,0.02
16.53569793701172,-0.01,0.0,-0.01,0.01
16.53924798965454,-0.01,0.01,-0.01,0.01
16.549410104751587,0.0,0.0,-0.01,0.01
16.56140899658203,-0.01,-0.01,-0.01,0.01
16.57077693939209,0.0,-0.01,-0.01,0.01
16.583193063735962,0.0,-0.01,0.0,0.01
16.589152097702026,0.0,0.01,-0.01,0.01
16.599037170410156,-0.02,-0.01,0.0,0.02
16.60912799835205,-0.02,-0.01,0.0,0.02
16.62126398086548,-0.01,-0.01,0.0,0.01
16.63634705543518,-0.01,-0.01,0.0,0.01
16.638453006744385,-0.01,-0.02,-0.01,0.02
16.648788928985596,-0.01,-0.01,-0.01,0.01
16.658931016921997,-0.01,0.0,-0.02,0.02
16.67110300064087,-0.01,-0.01,-0.01,0.01
16.68318510055542,-0.01,-0.01,-0.01,0.01
16.6882381439209,-0.01,-0.01,0.0,0.01
16.698400020599365,-0.01,0.0,-0.01,0.01
16.710429191589355,-0.01,-0.01,0.0,0.01
16.720829010009766,-0.01,0.0,-0.02,0.02
16.733752012252808,-0.01,-0.01,0.0,0.01
16.737977027893066,-0.02,0.0,0.0,0.02
16.748260974884033,-0.02,-0.01,-0.02,0.03
16.758207082748413,0.0,-0.01,-0.01,0.01
16.77117109298706,-0.01,0.0,-0.01,0.01
16.784789085388184,0.0,-0.01,-0.01,0.01
16.787414073944092,-0.01,-0.01,-0.01,0.01
16.79759693145752,-0.01,-0.01,0.0,0.01
16.80773901939392,-0.01,0.0,0.0,0.01
16.82084894180298,-0.02,-0.01,-0.01,0.02
16.83397603034973,0.0,-0.01,-0.01,0.01
16.837339878082275,-0.01,-0.01,-0.01,0.01
16.84728503227234,-0.01,-0.01,-0.01,0.01
16.859623908996582,-0.02,-0.01,0.0,0.02
16.87010908126831,-0.01,-0.01,-0.01,0.01
16.883255004882812,-0.02,0.0,-0.01,0.02
16.886813163757324,-0.02,-0.01,-0.01,0.02
16.897189140319824,-0.01,-0.01,0.0,0.01
16.90744709968567,0.0,0.0,-0.01,0.01
16.919509887695312,-0.01,0.0,0.0,0.01
16.93087601661682,-0.01,-0.01,-0.01,0.01
16.936572074890137,-0.01,-0.01,-0.01,0.01
16.946510076522827,-0.01,-0.01,0.0,0.01
16.958717107772827,-0.01,0.0,-0.01,0.01
16.96903109550476,-0.01,-0.01,-0.01,0.01
16.98217511177063,-0.01,0.0,-0.01,0.01
16.986237049102783,-0.01,-0.01,-0.01,0.01
16.996257066726685,-0.01,-0.01,-0.01,0.01
17.00661301612854,-0.01,0.0,-0.01,0.01
17.01901388168335,-0.01,-0.01,0.0,0.01
17.031078100204468,-0.01,-0.02,0.0,0.02
17.03596806526184,-0.01,-0.01,0.0,0.01
17.046008110046387,-0.01,0.0,-0.01,0.01
17.058218955993652,-0.01,-0.01,0.0,0.01
17.06801700592041,-0.01,-0.01,-0.01,0.01
17.081374168395996,-0.01,-0.01,-0.01,0.01
17.085419178009033,-0.01,-0.01,-0.01,0.01
17.09565496444702,-0.01,-0.01,0.0,0.01
17.107861042022705,-0.01,-0.02,-0.01,0.02
17.11786699295044,-0.01,-0.01,-0.01,0.01
17.130803108215332,-0.01,-0.01,-0.01,0.01
17.134926080703735,-0.01,-0.01,0.0,0.01
17.1454439163208,0.0,0.0,0.0,0.0
17.15792989730835,-0.01,-0.01,0.0,0.01
17.16709804534912,-0.02,-0.01,-0.01,0.02
17.179583072662354,-0.01,-0.02,0.0,0.02
17.185023069381714,-0.01,-0.01,0.0,0.01
17.19492506980896,-0.01,-0.01,0.0,0.01
17.20716905593872,-0.01,-0.01,-0.01,0.01
17.216562032699585,-0.01,-0.01,0.0,0.01
17.22985315322876,-0.01,-0.01,0.01,0.01
17.234873056411743,0.0,-0.02,0.0,0.02
17.24482822418213,-0.01,0.0,-0.01,0.01
17.254720211029053,-0.01,-0.01,0.0,0.01
17.266557216644287,-0.01,-0.01,-0.01,0.01
17.279848098754883,-0.02,-0.01,-0.01,0.02
17.284218072891235,-0.01,-0.01,-0.01,0.01
17.294311046600342,-0.02,-0.01,0.0,0.02
17.30476999282837,-0.01,-0.01,-0.01,0.01
17.315555095672607,-0.01,-0.01,-0.01,0.01
17.329734086990356,-0.01,-0.01,-0.01,0.01
17.333677053451538,-0.01,-0.01,-0.01,0.01
17.3438081741333,-0.01,-0.01,-0.01,0.01
17.35511302947998,-0.01,-0.01,0.0,0.01
17.36532211303711,-0.01,-0.01,-0.01,0.01
17.379224061965942,0.0,-0.01,0.0,0.01
17.38394808769226,-0.01,-0.01,-0.01,0.01
17.39355206489563,-0.01,-0.01,-0.01,0.01
17.40538501739502,-0.01,-0.01,0.0,0.01
17.414527893066406,-0.01,-0.01,0.0,0.01
17.428202152252197,-0.02,-0.01,-0.01,0.02
17.433346033096313,0.0,-0.01,-0.01,0.01
17.443533897399902,-0.01,-0.01,0.01,0.01
17.453429222106934,-0.01,-0.01,0.0,0.01
17.466268062591553,-0.01,0.0,-0.01,0.01
17.480905055999756,-0.01,0.0,-0.01,0.01
17.482717990875244,-0.01,-0.01,0.0,0.01
17.492981910705566,0.0,-0.01,0.0,0.01
17.50547218322754,-0.01,0.0,-0.01,0.01
17.51440405845642,0.0,0.0,-0.01,0.01
17.526859998703003,-0.01,-0.01,-0.01,0.01
17.532588958740234,0.0,-0.01,0.0,0.01
17.542534112930298,-0.01,0.0,-0.01,0.01
17.554355144500732,-0.01,-0.01,-0.01,0.01
17.56370496749878,-0.01,-0.01,-0.01,0.01
17.57685613632202,-0.02,0.0,-0.01,0.02
17.582012176513672,-0.01,0.0,-0.01,0.01
17.591915130615234,-0.01,0.0,-0.01,0.01
17.60375213623047,-0.01,-0.01,-0.01,0.01
17.612903118133545,-0.01,-0.01,-0.01,0.01
17.62703514099121,-0.01,0.0,0.0,0.01
17.63160514831543,-0.01,-0.01,0.0,0.01
17.641881942749023,-0.01,-0.01,0.0,0.01
17.65195322036743,-0.01,0.0,-0.01,0.01
17.66386318206787,-0.01,-0.01,-0.02,0.02
17.67869210243225,-0.01,-0.01,-0.02,0.02
17.681474208831787,0.0,-0.01,-0.01,0.01
17.69153904914856,-0.01,-0.01,0.0,0.01
17.701564073562622,0.0,-0.01,0.0,0.01
17.712756156921387,-0.01,-0.01,0.0,0.01
17.7257399559021,-0.01,-0.01,-0.01,0.01
17.730751991271973,-0.01,-0.01,-0.01,0.01
17.741392135620117,-0.01,0.0,-0.02,0.02
17.753167152404785,-0.01,-0.01,-0.01,0.01
17.762125968933105,-0.01,-0.01,0.0,0.01
17.775897979736328,-0.01,0.0,-0.01,0.01
17.78048801422119,-0.01,0.0,-0.01,0.01
17.79080605506897,0.0,0.0,-0.02,0.02
17.80367612838745,-0.01,-0.01,-0.01,0.01
17.811447143554688,-0.01,-0.01,-0.01,0.01
17.824295043945312,-0.01,-0.01,-0.01,0.01
17.83049702644348,0.0,-0.01,-0.01,0.01
17.840537071228027,-0.01,-0.01,-0.01,0.01
17.852505207061768,-0.01,-0.01,0.0,0.01
17.86279821395874,-0.02,0.0,0.01,0.02
17.877212047576904,0.0,-0.01,-0.01,0.01
17.880346059799194,0.0,-0.02,-0.02,0.02
17.890385150909424,-0.01,-0.01,0.0,0.01
17.902482986450195,-0.01,0.0,-0.01,0.01
17.911126136779785,-0.01,-0.01,-0.01,0.01
17.922935962677002,-0.01,-0.01,-0.01,0.01
17.93004608154297,0.0,-0.01,-0.01,0.01
17.940210103988647,-0.01,0.0,-0.01,0.01
17.95217800140381,-0.01,-0.01,-0.01,0.01
17.960594177246094,-0.01,-0.01,-0.01,0.01
17.97439193725586,0.0,-0.01,-0.01,0.01
17.979267120361328,-0.01,-0.01,-0.01,0.01
17.989418029785156,-0.01,-0.01,0.0,0.01
17.999589920043945,0.0,-0.01,0.0,0.01
18.01083517074585,0.0,-0.01,-0.01,0.01
18.023393154144287,-0.01,-0.01,-0.01,0.01
18.029113054275513,-0.01,-0.01,-0.01,0.01
18.0397469997406,0.0,-0.02,0.0,0.02
18.051909923553467,-0.01,-0.01,0.0,0.01
18.058577060699463,-0.01,-0.01,0.0,0.01
18.068690061569214,-0.01,-0.01,0.0,0.01
18.07933211326599,0.0,0.0,0.0,0.0
18.089088916778564,0.0,0.0,-0.01,0.01
18.101535081863403,-0.01,-0.01,-0.01,0.01
18.109979152679443,-0.01,-0.01,0.0,0.01
18.12321901321411,-0.01,-0.01,0.0,0.01
18.12860107421875,-0.01,-0.01,-0.01,0.01
18.13856315612793,-0.01,-0.01,-0.01,0.01
18.150894165039062,-0.01,-0.01,0.0,0.01
18.159852027893066,-0.01,-0.01,-0.01,0.01
18.174232006072998,-0.01,-0.01,-0.01,0.01
18.178077220916748,-0.01,0.0,-0.01,0.01
18.18785810470581,-0.01,-0.01,-0.01,0.01
18.198992013931274,-0.01,-0.01,-0.01,0.01
18.210505962371826,-0.01,0.0,0.0,0.01
18.227046966552734,-0.01,-0.01,-0.01,0.01
18.228081226348877,-0.01,0.0,0.0,0.01
18.240661144256592,-0.01,-0.02,-0.01,0.02
18.24773120880127,-0.01,-0.01,-0.01,0.01
18.258316040039062,-0.01,-0.01,-0.01,0.01
18.2708899974823,-0.01,0.0,-0.01,0.01
18.27763605117798,-0.01,-0.01,-0.01,0.01
18.287825107574463,-0.01,-0.01,-0.02,0.02
18.300168991088867,0.0,-0.01,0.0,0.01
18.308899879455566,0.0,0.0,0.0,0.0
18.319406032562256,-0.01,-0.01,-0.01,0.01
18.32710599899292,-0.01,-0.01,-0.01,0.01
18.337148189544678,-0.01,0.0,-0.01,0.01
18.34726619720459,-0.01,-0.01,-0.01,0.01
18.358983039855957,-0.01,0.0,-0.01,0.01
18.37178111076355,0.0,0.0,-0.01,0.01
18.376851081848145,0.0,0.0,-0.01,0.01
18.3873450756073,-0.01,-0.01,0.0,0.01
18.39947009086609,0.0,0.0,0.0,0.0
18.406790018081665,-0.01,0.0,-0.01,0.01
18.417609214782715,-0.01,-0.01,-0.02,0.02
18.426730155944824,0.0,0.0,-0.01,0.01
18.436816215515137,0.0,-0.01,0.0,0.01
18.448781967163086,-0.01,-0.01,-0.01,0.01
18.458308219909668,0.0,-0.01,0.0,0.01
18.472016096115112,-0.01,-0.01,-0.01,0.01
18.476238012313843,-0.01,-0.01,0.0,0.01
18.49101495742798,-0.01,-0.01,-0.01,0.01
18.497815132141113,0.0,0.0,-0.01,0.01
18.5075581073761,0.01,-0.01,-0.01,0.01
18.520288944244385,-0.01,-0.01,-0.01,0.01
18.525930881500244,-0.01,0.0,-0.01,0.01
18.53579807281494,-0.01,-0.01,-0.01,0.01
18.54749298095703,-0.01,0.0,-0.01,0.01
18.55744695663452,-0.01,-0.01,0.0,0.01
18.57199192047119,0.0,-0.01,0.0,0.01
18.575599193572998,-0.01,-0.01,-0.01,0.01
18.585305213928223,-0.01,0.0,-0.01,0.01
18.597795009613037,0.0,-0.01,-0.01,0.01
18.60684609413147,-0.01,-0.01,0.0,0.01
18.620115041732788,-0.01,0.0,-0.01,0.01
18.62520122528076,0.0,0.0,-0.02,0.02
18.635263919830322,-0.01,-0.01,-0.01,0.01
18.647517204284668,-0.02,-0.01,-0.02,0.03
18.6552472114563,0.0,0.0,0.0,0.0
18.666681051254272,0.0,-0.01,0.0,0.01
18.675055980682373,-0.01,-0.01,-0.01,0.01
18.684728145599365,-0.01,-0.01,0.0,0.01
18.697015047073364,0.0,0.0,-0.01,0.01
18.705263137817383,0.0,0.0,-0.01,0.01
18.717944145202637,-0.01,0.0,-0.01,0.01
18.7243230342865,-0.01,0.0,-0.01,0.01
18.734347105026245,-0.01,0.0,-0.01,0.01
18.746686935424805,0.0,-0.01,0.0,0.01
18.75602102279663,0.0,0.0,0.0,0.0
18.77003288269043,-0.01,-0.01,-0.01,0.01
18.7743821144104,-0.01,-0.02,-0.01,0.02
18.789544105529785,-0.01,-0.01,-0.01,0.01
18.795185089111328,-0.01,-0.01,-0.01,0.01
18.80633807182312,-0.01,-0.01,-0.02,0.02
18.820512056350708,-0.01,-0.02,-0.01,0.02
18.823843002319336,-0.01,0.0,0.0,0.01
18.833835124969482,-0.01,-0.01,-0.01,0.01
18.845041036605835,-0.01,-0.01,-0.01,0.01
18.856450080871582,0.0,0.0,0.0,0.0
18.871127128601074,0.0,0.0,0.01,0.01
18.873403072357178,0.0,-0.01,-0.01,0.01
18.89067506790161,-0.01,-0.01,-0.01,0.01
18.895092964172363,0.0,-0.01,-0.01,0.01
18.90608811378479,-0.01,0.0,-0.02,0.02
18.91792106628418,0.0,-0.02,-0.01,0.02
18.923240184783936,-0.01,-0.01,-0.01,0.01
18.941495895385742,-0.01,-0.01,0.0,0.01
18.942909002304077,-0.01,-0.01,0.0,0.01
18.956188201904297,0.0,0.0,-0.01,0.01
18.970508098602295,-0.01,-0.01,-0.01,0.01
18.97256088256836,0.0,-0.01,-0.01,0.01
18.982492923736572,0.0,-0.01,-0.01,0.01
18.992690086364746,0.0,0.0,-0.01,0.01
19.004637002944946,0.0,-0.01,0.0,0.01
19.018497943878174,-0.01,0.0,-0.01,0.01
19.022470951080322,0.0,0.0,-0.01,0.01
19.032476902008057,-0.01,-0.01,-0.01,0.01
19.044259071350098,0.0,-0.01,-0.01,0.01
19.054595947265625,-0.01,-0.01,0.0,0.01
19.067977905273438,-0.01,-0.01,-0.01,0.01
19.072118043899536,-0.01,-0.01,-0.01,0.01
19.081839084625244,-0.01,0.0,-0.01,0.01
19.09233808517456,0.0,-0.01,-0.01,0.01
19.104984998703003,0.01,-0.01,-0.02,0.02
19.118053913116455,0.0,-0.01,-0.02,0.02
19.12152910232544,-0.01,-0.01,0.0,0.01
19.140538215637207,0.0,-0.01,0.0,0.01
19.14160394668579,0.0,-0.01,-0.01,0.01
19.154015064239502,-0.01,0.0,-0.01,0.01
19.167706966400146,-0.01,-0.01,0.0,0.01
19.171459197998047,0.0,0.0,-0.02,0.02
19.181482076644897,-0.01,-0.01,-0.01,0.01
19.19110608100891,-0.01,0.0,-0.01,0.01
19.203411102294922,-0.01,-0.01,-0.01,0.01
19.217456102371216,0.0,-0.01,0.0,0.01
19.22071123123169,0.0,-0.01,-0.01,0.01
19.231040000915527,-0.01,0.0,0.0,0.01
19.24112319946289,-0.01,-0.01,0.0,0.01
19.252513885498047,-0.01,-0.01,0.0,0.01
19.26793622970581,0.0,-0.01,-0.01,0.01
19.27047610282898,-0.01,0.0,0.0,0.01
19.280721187591553,0.0,0.0,0.0,0.0
19.29094696044922,0.0,-0.01,0.0,0.01
19.30278205871582,-0.01,-0.01,0.0,0.01
19.31611204147339,0.0,-0.01,-0.01,0.01
19.32032299041748,-0.01,-0.01,0.01,0.01
19.330674171447754,0.0,0.0,0.0,0.0
19.342141151428223,0.0,0.0,-0.01,0.01
19.3521089553833,0.0,-0.01,0.0,0.01
19.365328073501587,0.0,-0.02,0.0,0.02
19.370127201080322,0.0,-0.01,0.0,0.01
19.3800630569458,0.01,-0.01,0.0,0.01
19.390507221221924,-0.01,0.0,-0.01,0.01
19.402891159057617,-0.01,-0.01,0.0,0.01
19.414467096328735,-0.01,-0.01,-0.01,0.01
19.41955304145813,-0.01,-0.01,-0.01,0.01
19.429723024368286,-0.01,-0.01,-0.01,0.01
19.441741943359375,0.0,-0.01,0.0,0.01
19.451220989227295,0.0,-0.01,-0.01,0.01
19.465045928955078,0.0,-0.01,-0.02,0.02
19.469439029693604,-0.01,-0.01,-0.01,0.01
19.479445934295654,-0.01,0.0,-0.01,0.01
19.48923397064209,-0.01,0.0,-0.01,0.01
19.50139093399048,-0.01,-0.01,-0.01,0.01
19.512537956237793,0.0,-0.01,-0.01,0.01
19.518957138061523,0.0,-0.01,-0.01,0.01
19.529105186462402,-0.01,-0.01,-0.01,0.01
19.539225101470947,0.0,0.0,-0.01,0.01
19.55205488204956,0.0,-0.01,0.0,0.01
19.56540298461914,-0.01,-0.01,-0.01,0.01
19.568560123443604,-0.01,0.0,-0.02,0.02
19.579018115997314,0.01,-0.01,-0.01,0.01
19.588906049728394,0.0,-0.01,-0.01,0.01
19.60181188583374,-0.01,0.0,0.0,0.01
19.616626024246216,0.0,0.0,0.0,0.0
19.618051052093506,0.0,-0.01,0.01,0.01
19.628554105758667,0.0,-0.01,-0.01,0.01
19.63848114013672,0.0,-0.01,0.0,0.01
19.650683879852295,-0.01,-0.01,0.0,0.01
19.663485050201416,0.0,-0.01,-0.02,0.02
19.6679790019989,0.0,-0.01,-0.01,0.01
19.67807388305664,-0.01,-0.01,0.0,0.01
19.689624071121216,0.0,-0.01,0.0,0.01
19.70000910758972,0.0,-0.01,-0.01,0.01
19.713749885559082,0.0,0.0,-0.01,0.01
19.71799111366272,-0.01,-0.01,0.0,0.01
19.724682092666626,0.0,-0.01,0.0,0.01
19.735120058059692,-0.01,0.0,-0.01,0.01
19.747292041778564,-0.01,-0.01,0.0,0.01
19.76017189025879,-0.01,-0.01,-0.02,0.02
19.764913082122803,-0.01,0.0,-0.01,0.01
19.774487018585205,0.0,0.0,0.0,0.0
19.78498101234436,-0.01,-0.01,0.0,0.01
19.79661512374878,0.0,-0.01,-0.02,0.02
19.81166100502014,-0.01,0.0,-0.01,0.01
19.814194202423096,-0.01,-0.01,0.0,0.01
19.824398040771484,0.0,0.0,0.0,0.0
19.834189891815186,0.0,-0.01,-0.01,0.01
19.846235036849976,-0.01,-0.01,-0.01,0.01
19.8605740070343,0.0,0.0,-0.01,0.01
19.863819122314453,0.0,-0.01,-0.02,0.02
19.87410593032837,-0.01,-0.01,0.0,0.01
19.88391900062561,-0.01,0.0,-0.01,0.01
19.896157026290894,-0.01,0.0,0.0,0.01
19.90796995162964,-0.01,0.0,0.0,0.01
19.9149169921875,0.0,0.0,0.0,0.0
19.923719882965088,0.0,-0.01,-0.01,0.01
19.93617820739746,0.0,0.0,-0.02,0.02
19.9455509185791,-0.01,-0.01,-0.01,0.01
19.95927405357361,0.0,0.0,-0.01,0.01
19.963229179382324,0.0,-0.01,0.0,0.01
19.973280906677246,-0.01,0.0,-0.01,0.01
19.98324704170227,0.0,0.0,0.0,0.0
19.995721101760864,0.0,-0.01,0.0,0.01
20.011404991149902,0.0,-0.01,-0.01,0.01
20.012802124023438,0.0,0.0,0.0,0.0
20.023004055023193,-0.01,0.01,-0.01,0.01
20.03304100036621,0.0,0.0,-0.01,0.01
20.04417109489441,0.0,0.0,-0.01,0.01
20.057744026184082,0.0,-0.02,-0.01,0.02
20.062777042388916,-0.01,0.0,0.0,0.01
20.072357177734375,0.0,0.0,0.0,0.0
20.08278203010559,0.0,-0.01,-0.01,0.01
20.094499111175537,-0.01,-0.01,-0.01,0.01
20.10824704170227,-0.01,0.0,-0.02,0.02
20.112278938293457,0.0,0.0,-0.01,0.01
20.122251987457275,0.0,-0.01,-0.01,0.01
20.132286071777344,0.0,-0.01,0.0,0.01
20.144721031188965,0.0,0.0,-0.01,0.01
20.160202026367188,-0.01,0.01,0.0,0.01
20.161630153656006,0.01,0.0,0.0,0.01
20.172025203704834,0.0,-0.01,0.0,0.01
20.181861877441406,0.0,-0.01,-0.01,0.01
20.194151878356934,-0.01,0.0,0.0,0.01
20.207186222076416,0.0,0.0,0.0,0.0
20.21144700050354,0.0,0.0,-0.01,0.01
20.22159719467163,0.0,-0.01,-0.01,0.01
20.23147702217102,0.0,0.0,-0.01,0.01
20.24340009689331,-0.01,-0.01,-0.01,0.01
20.256208896636963,0.0,-0.01,0.0,0.01
20.26114797592163,-0.01,0.0,-0.01,0.01
20.271286010742188,0.0,-0.01,-0.01,0.01
20.281657218933105,0.0,0.0,0.0,0.0
20.29378318786621,0.0,-0.01,-0.01,0.01
20.304992198944092,0.0,0.0,-0.01,0.01
20.31106400489807,-0.01,0.0,-0.01,0.01
20.321479082107544,0.0,0.0,-0.01,0.01
20.333497047424316,0.01,0.0,-0.01,0.01
20.34292221069336,-0.01,0.0,-0.01,0.01
20.35936403274536,0.0,-0.01,0.0,0.01
20.360580921173096,-0.01,-0.01,0.0,0.01
20.37364912033081,0.0,0.0,0.0,0.0
20.380741119384766,0.0,-0.01,-0.01,0.01
20.392970085144043,-0.01,0.0,0.0,0.01
20.40674114227295,-0.01,-0.01,-0.01,0.01
20.410358905792236,-0.01,0.0,-0.01,0.01
20.42387294769287,-0.01,-0.01,0.0,0.01
20.430630207061768,0.0,0.0,-0.01,0.01
20.44199800491333,-0.01,-0.01,-0.01,0.01
20.453978061676025,-0.01,0.0,-0.01,0.01
20.460172176361084,0.0,0.0,-0.01,0.01
20.47001004219055,0.0,0.0,-0.01,0.01
20.482276916503906,-0.01,0.0,-0.01,0.01
20.491806983947754,-0.01,-0.01,-0.01,0.01
20.505678176879883,0.0,-0.01,0.0,0.01
20.50989007949829,0.0,-0.01,0.0,0.01
20.519915103912354,0.0,0.0,-0.01,0.01
20.53013300895691,-0.01,0.0,0.0,0.01
20.542002201080322,-0.01,-0.01,0.0,0.01
20.55732297897339,0.0,-0.01,0.0,0.01
20.559123992919922,0.0,-0.01,0.0,0.01
20.569297075271606,0.0,-0.01,-0.01,0.01
20.579800128936768,0.0,-0.01,0.0,0.01
20.591634035110474,0.0,0.0,-0.01,0.01
20.607765197753906,0.0,0.01,-0.01,0.01
20.608768939971924,0.0,0.0,-0.01,0.01
20.619068145751953,0.0,0.0,-0.01,0.01
20.62894606590271,0.0,-0.01,-0.01,0.01
20.63909101486206,-0.01,-0.01,-0.01,0.01
20.650043964385986,-0.01,0.0,0.0,0.01
20.658912181854248,0.0,0.0,-0.01,0.01
20.668911933898926,0.0,-0.01,0.0,0.01
20.68090510368347,-0.01,-0.01,-0.01,0.01
20.690511226654053,0.0,-0.01,0.0,0.01
20.70662498474121,-0.01,0.0,-0.01,0.01
20.70811891555786,0.0,0.0,-0.01,0.01
20.72359299659729,0.0,-0.01,-0.01,0.01
20.728183031082153,0.0,-0.01,0.0,0.01
20.74084210395813,-0.02,-0.01,-0.01,0.02
20.753612995147705,-0.01,-0.01,0.0,0.01
20.75803303718567,0.0,-0.01,0.0,0.01
20.767946004867554,0.0,0.0,-0.01,0.01
20.778313159942627,0.0,-0.01,0.0,0.01
20.78965711593628,0.0,-0.01,0.0,0.01
20.803275108337402,0.0,0.0,0.01,0.01
20.807995080947876,-0.01,-0.01,-0.01,0.01
20.817580223083496,-0.01,-0.01,-0.01,0.01
20.828145027160645,0.0,0.0,0.0,0.0
20.83967399597168,-0.01,-0.01,0.0,0.01
20.854761123657227,0.0,-0.01,-0.01,0.01
20.85740089416504,0.0,0.0,0.0,0.0
20.86718511581421,0.0,-0.01,0.0,0.01
20.87747812271118,0.0,-0.01,0.0,0.01
20.890103101730347,-0.01,-0.01,-0.01,0.01
20.90330696105957,-0.01,-0.01,-0.01,0.01
20.90721607208252,0.0,-0.01,-0.01,0.01
20.9169979095459,0.0,0.0,0.0,0.0
20.927284002304077,0.0,-0.01,0.0,0.01
20.938393115997314,0.0,-0.01,0.0,0.01
20.955710887908936,-0.01,-0.01,-0.01,0.01
20.956845998764038,0.0,-0.01,-0.01,0.01
20.966593027114868,0.0,-0.01,-0.01,0.01
20.978611946105957,0.0,-0.01,0.0,0.01
20.988131046295166,0.0,-0.01,0.0,0.01
21.002667903900146,0.0,0.0,0.0,0.0
21.006325006484985,-0.01,-0.01,-0.01,0.01
21.016545057296753,0.0,-0.01,0.0,0.01
21.02653217315674,0.0,-0.01,-0.01,0.01
21.03806495666504,0.0,0.0,-0.01,0.01
21.050661087036133,-0.01,0.01,0.01,0.01
21.056227207183838,0.0,0.0,-0.01,0.01
21.065805912017822,0.0,-0.01,-0.01,0.01
21.076589107513428,-0.01,0.0,0.0,0.01
21.0882830619812,0.0,0.0,0.0,0.0
21.10273790359497,0.0,-0.01,-0.01,0.01
21.105436086654663,0.0,-0.01,0.0,0.01
21.115690231323242,0.0,0.0,0.0,0.0
21.12563419342041,0.0,0.0,-0.01,0.01
21.13582992553711,0.0,0.0,0.0,0.0
21.147943019866943,-0.01,0.0,-0.01,0.01
21.155560970306396,-0.01,-0.01,0.0,0.01
21.165707111358643,0.0,-0.01,0.0,0.01
21.177310943603516,0.0,-0.01,-0.01,0.01
21.187047004699707,0.0,-0.01,0.0,0.01
21.202514171600342,0.0,-0.01,-0.01,0.01
21.205157041549683,-0.01,0.0,-0.02,0.02
21.22714614868164,0.0,-0.01,0.0,0.01
21.231245040893555,0.0,-0.01,0.0,0.01
21.2344970703125,0.0,-0.01,0.0,0.01
21.24485206604004,0.0,-0.01,-0.01,0.01
21.254886150360107,0.0,-0.01,0.0,0.01
21.266690015792847,-0.01,-0.01,0.01,0.01
21.27648901939392,0.0,-0.01,0.0,0.01
21.2861270904541,0.0,-0.01,-0.01,0.01
21.29964017868042,0.0,0.0,0.0,0.0
21.304280042648315,-0.01,-0.01,-0.01,0.01
21.314280033111572,0.0,-0.01,0.0,0.01
21.324337005615234,-0.01,-0.01,0.0,0.01
21.33696222305298,-0.01,0.0,-0.01,0.01
21.35328722000122,0.0,-0.01,0.0,0.01
21.354278087615967,0.0,-0.01,-0.01,0.01
21.364203929901123,0.0,0.0,0.0,0.0
21.37435507774353,-0.01,-0.01,-0.01,0.01
21.386702060699463,0.0,0.0,0.0,0.0
21.3991219997406,0.0,0.0,0.0,0.0
21.403501987457275,0.0,-0.01,0.0,0.01
21.413649082183838,0.0,-0.01,0.0,0.01
21.423954963684082,0.01,-0.01,-0.01,0.01
21.436663150787354,0.0,0.0,0.0,0.0
21.448901176452637,0.0,0.01,0.0,0.01
21.453522205352783,0.0,-0.01,0.0,0.01
21.463216066360474,-0.01,-0.01,0.0,0.01
21.475489139556885,0.0,-0.01,-0.01,0.01
21.484341144561768,0.0,-0.01,-0.01,0.01
21.4984130859375,-0.01,0.0,-0.01,0.01
21.50312900543213,0.0,-0.01,0.0,0.01
21.513005018234253,0.0,0.0,0.0,0.0
21.523163080215454,-0.01,0.0,0.0,0.01
21.53534698486328,-0.01,-0.01,0.0,0.01
21.548760890960693,0.0,-0.01,-0.01,0.01
21.5526340007782,0.0,-0.01,-0.01,0.01
21.562675952911377,0.0,0.0,-0.02,0.02
21.57494807243347,-0.01,-0.01,-0.01,0.01
21.584577083587646,0.0,0.0,-0.01,0.01
21.599419116973877,0.0,0.0,0.0,0.0
21.602406978607178,-0.01,-0.01,-0.01,0.01
21.612293004989624,0.01,-0.01,-0.01,0.01
21.622793197631836,0.0,0.0,0.01,0.01
21.63471794128418,0.0,0.0,0.0,0.0
21.647522926330566,0.0,0.0,-0.02,0.02
21.65217113494873,-0.01,-0.02,-0.01,0.02
21.662179946899414,0.0,0.0,0.0,0.0
21.672384023666382,-0.01,0.0,0.01,0.01
21.68413805961609,-0.01,-0.01,-0.01,0.01
21.698365211486816,-0.01,0.0,-0.01,0.01
21.70168113708496,0.0,-0.01,0.0,0.01
21.71161413192749,-0.01,-0.01,0.0,0.01
21.72158193588257,-0.01,0.0,0.0,0.01
21.732759952545166,-0.01,0.0,0.0,0.01
21.74860191345215,-0.01,0.0,-0.01,0.01
21.75109601020813,0.0,0.0,0.0,0.0
21.761380195617676,-0.01,0.0,-0.01,0.01
21.771421909332275,-0.01,0.0,0.0,0.01
21.783267974853516,-0.01,0.0,-0.01,0.01
21.797316074371338,-0.01,0.0,-0.01,0.01
21.801226139068604,0.0,0.0,0.0,0.0
21.811013221740723,0.0,-0.01,0.0,0.01
21.821367025375366,-0.01,0.0,0.0,0.01
21.833134174346924,0.0,0.0,-0.01,0.01
21.846246004104614,0.0,0.0,0.0,0.0
21.85058903694153,0.0,-0.01,0.0,0.01
21.860395908355713,0.0,0.0,-0.01,0.01
21.872660160064697,-0.01,0.0,0.0,0.01
21.88229203224182,-0.01,0.0,-0.01,0.01
21.897685050964355,0.0,0.0,-0.01,0.01
21.900031089782715,0.01,-0.01,0.0,0.01
21.910305976867676,0.0,-0.01,0.01,0.01
21.92040491104126,0.0,-0.01,-0.01,0.01
21.932709217071533,-0.01,0.0,-0.01,0.01
21.948721885681152,0.0,-0.01,0.0,0.01
21.94965696334839,0.0,-0.01,0.0,0.01
21.959836959838867,0.0,-0.01,-0.01,0.01
21.970062017440796,0.0,0.0,-0.01,0.01
21.981734037399292,0.0,-0.01,-0.01,0.01
21.99691390991211,0.0,-0.01,0.0,0.01
21.99926209449768,0.0,-0.01,-0.01,0.01
22.009623050689697,0.0,-0.01,-0.01,0.01
22.01976490020752,0.0,0.0,-0.01,0.01
22.030951023101807,0.0,0.0,-0.01,0.01
22.04623317718506,-0.01,-0.01,0.0,0.01
22.049164056777954,0.0,-0.01,0.0,0.01
22.059223175048828,-0.01,-0.01,0.0,0.01
22.069490909576416,-0.01,-0.01,-0.01,0.01
22.081573963165283,0.0,0.0,-0.01,0.01
22.0972261428833,0.0,-0.01,-0.01,0.01
22.098729133605957,0.0,-0.01,0.0,0.01
22.109101057052612,-0.01,0.0,-0.01,0.01
22.118861198425293,-0.01,-0.01,-0.02,0.02
22.129374980926514,-0.01,0.0,-0.01,0.01
22.142026901245117,-0.01,0.0,0.0,0.01
22.148427963256836,-0.01,0.0,-0.01,0.01
22.158695220947266,0.0,0.0,0.0,0.0
22.170627117156982,0.0,-0.01,0.0,0.01
22.18025302886963,0.0,-0.01,-0.01,0.01
22.195992946624756,0.0,-0.01,0.0,0.01
22.19798517227173,-0.01,-0.01,0.0,0.01
22.208287000656128,-0.01,-0.01,-0.01,0.01
22.218134880065918,-0.01,0.0,0.0,0.01
22.228491067886353,0.0,0.0,0.0,0.0
22.24068021774292,0.0,-0.01,0.0,0.01
22.24788188934326,0.0,-0.01,-0.01,0.01
22.25831413269043,0.0,0.0,0.0,0.0
22.27044916152954,-0.01,-0.01,0.0,0.01
22.278934001922607,-0.01,-0.01,0.0,0.01
22.294584035873413,0.0,0.0,-0.01,0.01
22.297633171081543,-0.01,-0.01,-0.01,0.01
22.307705879211426,-0.01,0.0,-0.02,0.02
22.317655086517334,-0.01,-0.01,0.0,0.01
22.327924013137817,0.0,-0.01,-0.01,0.01
22.34029197692871,-0.01,-0.02,-0.01,0.02
22.347294092178345,-0.01,0.0,-0.01,0.01
22.357131958007812,-0.01,0.0,0.0,0.01
22.36870002746582,-0.01,0.0,0.0,0.01
22.37914204597473,0.0,0.0,0.01,0.01
22.3941969871521,0.0,0.0,0.0,0.0
22.396728038787842,0.01,-0.01,-0.01,0.01
22.40704607963562,-0.01,0.0,-0.01,0.01
22.416734218597412,-0.01,-0.01,0.0,0.01
22.429078102111816,0.0,0.0,0.0,0.0
22.44198513031006,0.0,-0.01,0.0,0.01
22.4464910030365,0.0,-0.01,-0.01,0.01
22.45664691925049,-0.01,-0.02,-0.02,0.03
22.46705389022827,0.0,-0.01,0.0,0.01
22.478548049926758,-0.01,0.0,0.0,0.01
22.491899967193604,0.0,0.0,-0.01,0.01
22.496020078659058,0.0,0.0,0.0,0.0
22.506222009658813,-0.01,0.0,0.0,0.01
22.515794038772583,-0.01,0.0,0.0,0.01
22.52838897705078,0.0,-0.01,-0.01,0.01
22.543445110321045,-0.01,0.0,-0.01,0.01
22.545794010162354,0.0,-0.01,0.0,0.01
22.556427001953125,0.0,-0.01,-0.01,0.01
22.565720081329346,0.0,0.0,-0.01,0.01
22.578142166137695,-0.01,-0.01,-0.01,0.01
22.590912103652954,-0.01,-0.01,0.0,0.01
22.5954909324646,-0.01,0.0,0.0,0.01
22.60575008392334,-0.01,-0.01,0.0,0.01
22.617956161499023,0.0,-0.01,-0.01,0.01
22.62721300125122,-0.01,-0.01,0.0,0.01
22.641232013702393,-0.01,-0.01,-0.01,0.01
22.645507097244263,-0.01,0.0,0.0,0.01
22.65652894973755,-0.01,0.0,-0.01,0.01
22.667428016662598,-0.01,0.0,-0.01,0.01
22.6774640083313,0.0,0.0,0.0,0.0
22.692935943603516,-0.01,-0.01,0.0,0.01
22.694420099258423,-0.01,-0.01,0.0,0.01
22.70497417449951,0.0,-0.01,0.0,0.01
22.71492910385132,-0.01,-0.01,0.0,0.01
22.726852893829346,0.0,-0.01,0.0,0.01
22.74106502532959,-0.01,-0.01,0.0,0.01
22.74463415145874,0.0,0.0,0.0,0.0
22.756540060043335,-0.01,0.0,0.0,0.01
22.76698398590088,-0.01,-0.01,-0.01,0.01
22.77403688430786,-0.01,-0.01,0.0,0.01
22.78561806678772,0.0,-0.01,-0.01,0.01
22.794063091278076,0.0,-0.02,-0.01,0.02
22.8044490814209,-0.01,-0.01,0.0,0.01
22.8159761428833,-0.01,-0.01,-0.01,0.01
22.825807094573975,-0.01,0.0,-0.01,0.01
22.83961820602417,-0.01,0.0,0.0,0.01
22.844039916992188,0.0,0.0,-0.01,0.01
22.85400915145874,0.0,-0.01,-0.01,0.01
22.866188049316406,-0.01,-0.01,0.0,0.01
22.875601053237915,-0.01,0.0,0.01,0.01
22.888965129852295,-0.01,-0.01,-0.01,0.01
22.893506050109863,-0.01,-0.01,-0.01,0.01
22.903505086898804,0.0,-0.01,-0.01,0.01
22.9167160987854,-0.01,-0.02,0.0,0.02
22.925573110580444,-0.01,0.0,-0.01,0.01
22.93891191482544,0.0,0.0,0.0,0.0
22.943344116210938,-0.01,-0.01,-0.01,0.01
22.957149028778076,-0.01,-0.01,-0.02,0.02
22.96338701248169,0.0,-0.01,-0.01,0.01
22.975829124450684,-0.01,-0.01,-0.01,0.01
22.98878502845764,0.0,-0.01,-0.01,0.01
22.992801189422607,-0.01,-0.01,0.0,0.01
23.00653314590454,-0.01,-0.01,-0.01,0.01
23.012627124786377,0.0,0.0,-0.01,0.01
23.02534818649292,-0.01,0.0,-0.01,0.01
23.04066300392151,-0.01,0.0,-0.01,0.01
23.04244613647461,0.0,-0.01,0.0,0.01
23.052515029907227,0.0,0.0,0.0,0.0
23.062975883483887,-0.01,-0.01,0.01,0.01
23.074492931365967,-0.01,0.0,0.0,0.01
23.088107109069824,-0.01,0.0,-0.01,0.01
23.091989994049072,-0.01,-0.01,-0.01,0.01
23.102411031723022,0.0,-0.02,0.0,0.02
23.112067222595215,0.0,-0.01,0.0,0.01
23.122426986694336,-0.01,0.0,0.0,0.01
23.134646892547607,0.0,-0.01,-0.01,0.01
23.14186191558838,0.0,-0.01,-0.01,0.01
23.151747226715088,0.0,-0.01,0.0,0.01
23.162076950073242,0.0,0.0,0.0,0.0
23.173110961914062,0.0,0.0,0.0,0.0
23.18702793121338,-0.01,-0.01,0.0,0.01
23.19127321243286,0.0,-0.01,-0.01,0.01
23.201515197753906,-0.01,-0.01,-0.01,0.01
23.211076021194458,-0.01,-0.01,-0.01,0.01
23.224467039108276,0.0,0.0,0.0,0.0
23.237544059753418,0.0,-0.01,-0.01,0.01
23.24082612991333,0.0,-0.01,-0.01,0.01
23.250762939453125,0.0,-0.01,-0.01,0.01
23.261176109313965,0.0,0.0,0.0,0.0
23.27341604232788,-0.01,-0.01,0.01,0.01
23.288430213928223,0.0,-0.01,0.0,0.01
23.29051113128662,-0.01,-0.01,-0.01,0.01
23.30653190612793,0.0,-0.01,-0.01,0.01
23.31025791168213,0.0,-0.01,0.01,0.01
23.322997093200684,-0.01,0.0,0.0,0.01
23.336693048477173,-0.01,0.0,0.0,0.01
23.340404987335205,-0.01,-0.01,0.01,0.01
23.35054922103882,-0.01,0.0,0.0,0.01
23.360538005828857,0.0,-0.01,-0.01,0.01
23.370590209960938,-0.01,0.0,-0.01,0.01
23.382850170135498,0.0,-0.01,0.0,0.01
23.390207052230835,0.0,0.0,0.0,0.0
23.400136947631836,-0.01,0.0,0.0,0.01
23.41037893295288,-0.01,-0.01,0.0,0.01
23.42237615585327,0.0,-0.01,-0.01,0.01
23.436534881591797,-0.01,0.0,-0.01,0.01
23.439892053604126,0.0,-0.01,0.0,0.01
23.4498450756073,-0.01,-0.01,0.0,0.01
23.46012592315674,0.0,-0.01,-0.01,0.01
23.472257137298584,-0.01,-0.01,-0.02,0.02
23.48741912841797,0.0,0.0,0.0,0.0
23.4891619682312,-0.01,0.0,0.0,0.01
23.50683903694153,0.0,-0.01,0.0,0.01
23.50908899307251,0.0,0.0,-0.01,0.01
23.521989107131958,-0.01,0.0,0.0,0.01
23.53743004798889,-0.01,-0.01,0.0,0.01
23.538872003555298,-0.01,0.0,-0.01,0.01
23.54916501045227,0.0,-0.01,0.0,0.01
23.55915403366089,0.0,0.0,-0.01,0.01
23.57140016555786,-0.01,-0.01,-0.01,0.01
23.584562063217163,-0.01,-0.01,0.0,0.01
23.58866596221924,-0.01,-0.01,0.0,0.01
23.598714113235474,0.0,0.0,-0.01,0.01
23.608971118927002,0.0,0.0,0.0,0.0
23.621278047561646,0.0,-0.01,0.0,0.01
23.63589096069336,-0.01,-0.01,0.01,0.01
23.638550996780396,-0.01,0.0,0.0,0.01
23.648458003997803,0.0,-0.02,-0.01,0.02
23.658539056777954,0.0,-0.01,0.0,0.01
23.67069721221924,-0.01,0.0,0.0,0.01
23.6841778755188,-0.01,-0.01,-0.01,0.01
23.6879940032959,0.0,-0.01,0.0,0.01
23.69800615310669,0.0,0.0,-0.01,0.01
23.707886219024658,0.0,0.0,0.0,0.0
23.718512058258057,0.0,0.0,0.0,0.0
23.730162143707275,-0.01,-0.01,0.0,0.01
23.73748207092285,-0.01,-0.01,0.0,0.01
23.74735116958618,0.0,0.0,0.0,0.0
23.759489059448242,0.0,-0.01,0.0,0.01
23.76980209350586,0.0,0.0,0.0,0.0
23.786402225494385,0.0,0.0,0.0,0.0
23.78699016571045,0.0,0.0,0.01,0.01
23.797343015670776,-0.01,-0.01,-0.01,0.01
23.807072162628174,-0.01,0.0,-0.01,0.01
23.820439100265503,0.0,0.0,0.0,0.0
23.83461093902588,-0.01,0.0,0.0,0.01
23.8367919921875,0.0,-0.01,-0.01,0.01
23.846890926361084,-0.01,0.0,-0.01,0.01
23.856709957122803,-0.01,-0.01,0.0,0.01
23.866940021514893,-0.01,0.0,0.0,0.01
23.879196166992188,-0.01,-0.01,-0.01,0.01
23.886677026748657,0.0,0.0,-0.01,0.01
23.89632511138916,0.0,0.0,-0.01,0.01
23.908809185028076,-0.01,0.0,0.0,0.01
23.918561935424805,0.0,0.0,0.0,0.0
23.93328619003296,0.0,0.0,-0.01,0.01
23.936059951782227,-0.01,0.0,0.0,0.01
23.946407079696655,0.0,0.0,0.0,0.0
23.956199169158936,0.0,-0.01,0.0,0.01
23.966154098510742,0.0,-0.01,-0.01,0.01
23.978143215179443,0.0,-0.01,-0.01,0.01
23.9860680103302,0.0,-0.01,0.0,0.01
23.99617290496826,-0.01,0.01,0.0,0.01
24.007883071899414,-0.01,0.0,0.0,0.01
24.017773151397705,0.0,-0.01,-0.01,0.01
24.0318500995636,-0.01,-0.01,0.0,0.01
24.035202026367188,-0.01,-0.01,0.0,0.01
24.045557975769043,0.0,0.0,-0.01,0.01
24.05524206161499,0.0,-0.01,0.0,0.01
24.06716299057007,0.0,-0.01,0.01,0.01
24.083226203918457,0.0,0.0,0.0,0.0
24.085114002227783,-0.01,0.0,-0.01,0.01
24.09493923187256,0.0,0.0,-0.01,0.01
24.104697227478027,0.0,0.0,-0.01,0.01
24.11477303504944,0.0,0.0,0.0,0.0
24.12724804878235,-0.01,0.0,0.0,0.01
24.134747982025146,0.0,0.0,0.0,0.0
24.144774913787842,-0.01,0.0,0.0,0.01
24.15482807159424,-0.01,0.0,-0.02,0.02
24.165212154388428,0.0,-0.01,-0.01,0.01
24.17746591567993,-0.01,0.0,-0.01,0.01
24.184385061264038,-0.01,0.0,0.0,0.01
24.194270133972168,-0.01,0.0,0.0,0.01
24.204535007476807,0.0,0.0,-0.01,0.01
24.21550416946411,0.0,0.0,-0.01,0.01
24.23096799850464,-0.01,-0.01,0.0,0.01
24.23403000831604,-0.01,-0.01,0.0,0.01
24.24411702156067,-0.01,0.0,0.0,0.01
24.25459599494934,0.0,-0.01,0.0,0.01
24.266067028045654,0.0,0.0,0.0,0.0
24.2844820022583,-0.01,0.0,0.0,0.01
24.285527229309082,0.0,0.0,-0.01,0.01
24.296473026275635,-0.01,0.0,0.0,0.01
24.306561946868896,0.0,-0.01,-0.01,0.01
24.318594932556152,-0.01,-0.01,-0.01,0.01
24.333121061325073,-0.01,0.0,0.0,0.01
24.335910081863403,-0.01,0.0,-0.02,0.02
24.34625506401062,-0.01,-0.01,-0.01,0.01
24.356099128723145,0.0,-0.01,0.01,0.01
24.366014003753662,0.0,-0.01,0.0,0.01
24.378085136413574,0.0,-0.01,0.0,0.01
24.386109113693237,0.0,0.0,0.0,0.0
24.396049976348877,-0.01,0.0,-0.01,0.01
24.40792202949524,0.0,-0.01,-0.01,0.01
24.41855502128601,0.0,0.0,0.0,0.0
24.432476043701172,0.0,-0.01,0.0,0.01
24.43533706665039,-0.01,-0.01,-0.01,0.01
24.445564031600952,0.0,0.0,-0.01,0.01
24.455379009246826,0.0,0.0,0.0,0.0
24.466787099838257,0.0,0.0,0.0,0.0
24.479855060577393,-0.01,0.0,-0.01,0.01
24.485236167907715,0.0,0.0,0.0,0.0
24.49509620666504,-0.01,0.0,0.0,0.01
24.505290985107422,-0.01,0.0,0.0,0.01
24.517972946166992,0.0,0.0,0.0,0.0
24.53370189666748,0.0,0.0,0.0,0.0
24.534613132476807,-0.01,0.0,0.0,0.01
24.544785022735596,0.0,0.0,0.0,0.0
24.556992053985596,0.0,0.0,0.0,0.0
24.56802010536194,-0.01,0.0,-0.01,0.01
24.583298206329346,0.0,0.0,0.0,0.0
24.584660053253174,0.0,0.0,-0.01,0.01
24.594515085220337,-0.01,0.0,0.0,0.01
24.60627794265747,0.0,0.01,0.0,0.01
24.61456799507141,-0.01,0.0,0.0,0.01
24.627089023590088,0.0,0.0,0.01,0.01
24.634403228759766,-0.01,-0.01,-0.01,0.01
24.644269943237305,0.0,0.0,0.0,0.0
24.65415620803833,0.0,0.0,0.0,0.0
24.667572021484375,0.0,-0.01,0.01,0.01
24.684895038604736,0.0,0.0,0.0,0.0
24.68592119216919,0.0,0.0,0.0,0.0
24.693871021270752,-0.01,0.0,0.0,0.01
24.707239151000977,0.0,-0.01,0.0,0.01
24.71412205696106,-0.01,0.0,-0.01,0.01
24.727083206176758,0.0,0.0,-0.01,0.01
24.733572006225586,0.0,0.0,0.0,0.0
24.74332618713379,0.0,0.0,0.0,0.0
24.753403186798096,-0.01,0.0,0.0,0.01
24.765750885009766,-0.01,-0.01,-0.01,0.01
24.779866218566895,-0.01,0.0,0.01,0.01
24.783024072647095,-0.01,0.0,0.0,0.01
24.793102025985718,0.0,-0.01,0.0,0.01
24.802664041519165,-0.01,-0.01,0.0,0.01
24.81527090072632,0.0,0.0,0.0,0.0
24.83004093170166,-0.01,0.0,0.0,0.01
24.832680225372314,-0.01,-0.01,0.01,0.01
24.84263515472412,0.0,0.0,0.0,0.0
24.85260009765625,-0.01,-0.01,0.0,0.01
24.862786054611206,0.0,0.0,0.0,0.0
24.873188018798828,-0.01,0.0,-0.01,0.01
24.882209062576294,-0.01,0.0,0.0,0.01
24.892199993133545,0.0,-0.01,0.0,0.01
24.90408706665039,-0.01,-0.01,0.0,0.01
24.91517210006714,0.0,0.0,-0.01,0.01
24.93130397796631,0.0,0.0,-0.01,0.01
24.931875228881836,0.0,0.0,0.01,0.01
24.94214105606079,-0.01,-0.01,0.0,0.01
24.952332019805908,0.0,0.0,-0.01,0.01
24.964044094085693,0.0,0.01,0.0,0.01
24.97829294204712,0.0,0.0,0.0,0.0
24.981502056121826,0.0,-0.01,0.0,0.01
24.99154305458069,0.0,0.0,0.0,0.0
25.001573085784912,-0.01,-0.01,0.0,0.01
25.013803005218506,0.0,0.0,-0.01,0.01
25.028295040130615,-0.01,0.0,-0.02,0.02
25.03114604949951,-0.01,0.0,0.0,0.01
25.041303157806396,-0.01,0.0,0.0,0.01
25.051213026046753,-0.01,0.0,-0.01,0.01
25.06254291534424,-0.01,0.0,-0.01,0.01
25.075543880462646,-0.01,0.0,-0.01,0.01
25.081290006637573,-0.01,-0.01,0.0,0.01
25.09099006652832,-0.01,0.0,0.0,0.01
25.100922107696533,-0.01,0.0,0.0,0.01
25.113250017166138,0.0,-0.01,0.0,0.01
25.12983512878418,-0.01,0.0,-0.01,0.01
25.131043910980225,-0.01,0.0,-0.01,0.01
25.14069414138794,0.0,0.0,-0.01,0.01
25.150352954864502,0.0,0.0,-0.01,0.01
25.16082501411438,-0.01,0.0,-0.01,0.01
25.174309015274048,-0.01,-0.01,0.0,0.01
25.18017816543579,-0.01,0.0,0.0,0.01
25.190489053726196,0.0,0.0,0.0,0.0
25.202660083770752,0.0,0.0,-0.01,0.01
25.21235418319702,-0.01,-0.01,0.0,0.01
25.22872495651245,0.0,-0.01,0.01,0.01
25.22989511489868,0.0,0.0,0.0,0.0
25.240061044692993,-0.01,0.0,-0.01,0.01
25.24993109703064,-0.01,0.0,0.0,0.01
25.259921073913574,-0.01,0.01,-0.01,0.01
25.27083110809326,-0.01,0.0,0.0,0.01
25.27964210510254,-0.01,0.0,0.0,0.01
25.289649963378906,0.0,0.0,0.0,0.0
25.29990291595459,-0.01,-0.01,-0.01,0.01
25.312089920043945,-0.01,0.0,0.0,0.01
25.328059196472168,-0.01,-0.01,0.0,0.01
25.329079151153564,-0.01,0.0,0.0,0.01
25.339413166046143,-0.01,0.0,-0.02,0.02
25.3494291305542,-0.01,0.0,0.0,0.01
25.358948230743408,-0.01,0.0,0.0,0.01
25.371121883392334,0.0,0.0,-0.01,0.01
25.379277229309082,-0.01,-0.01,0.0,0.01
25.389144897460938,-0.01,0.01,-0.01,0.01
25.398734092712402,0.0,0.0,-0.02,0.02
25.40932321548462,-0.01,0.0,-0.01,0.01
25.42218017578125,0.0,-0.01,0.0,0.01
25.428930044174194,0.0,0.0,-0.01,0.01
25.440093994140625,-0.01,0.0,-0.01,0.01
25.44889807701111,-0.01,0.0,0.0,0.01
25.4601149559021,-0.01,0.0,0.0,0.01
25.477238178253174,0.0,-0.01,-0.01,0.01
25.47837495803833,0.0,0.0,-0.01,0.01
25.48858118057251,-0.01,0.0,0.0,0.01
25.498565196990967,0.0,0.0,0.0,0.0
25.510551929473877,-0.01,0.0,-0.01,0.01
25.526462078094482,-0.01,0.0,-0.01,0.01
25.528182983398438,0.0,-0.01,0.0,0.01
25.53807306289673,0.0,0.0,-0.01,0.01
25.547913074493408,0.0,-0.01,0.0,0.01
25.558218002319336,-0.01,0.0,0.0,0.01
25.572553157806396,0.0,0.0,-0.01,0.01
25.577691078186035,-0.01,0.0,0.0,0.01
25.58771300315857,-0.01,0.0,0.0,0.01
25.599742889404297,-0.01,0.01,-0.01,0.01
25.609559059143066,0.0,-0.01,0.0,0.01
25.624648094177246,-0.01,0.0,-0.01,0.01
25.627273082733154,0.0,0.0,-0.01,0.01
25.637434005737305,-0.01,0.0,0.0,0.01
25.647204875946045,-0.01,0.0,0.01,0.01
25.657429218292236,-0.01,0.0,-0.01,0.01
25.67149305343628,0.0,-0.01,-0.01,0.01
25.676920890808105,-0.01,-0.01,0.01,0.01
25.687160968780518,0.0,0.0,-0.01,0.01
25.696929931640625,0.0,0.0,-0.01,0.01
25.70930814743042,0.0,0.01,0.01,0.01
25.725887060165405,0.0,-0.01,0.0,0.01
25.727190017700195,-0.01,0.0,-0.01,0.01
25.7398099899292,-0.01,0.0,-0.01,0.01
25.746565103530884,-0.01,0.0,0.0,0.01
25.756954193115234,0.0,-0.01,0.0,0.01
25.76927399635315,-0.01,-0.01,0.0,0.01
25.776265144348145,-0.01,-0.01,0.0,0.01
25.786433219909668,-0.01,0.0,0.0,0.01
25.79673409461975,0.0,0.0,-0.01,0.01
25.807295083999634,0.0,0.0,-0.01,0.01
25.823452949523926,0.0,0.0,0.0,0.0
25.825841903686523,-0.01,0.0,0.0,0.01
25.836129188537598,-0.01,0.01,-0.01,0.01
25.846203088760376,0.0,0.0,0.0,0.0
25.857896089553833,-0.01,0.0,-0.01,0.01
25.872372150421143,-0.01,-0.01,0.0,0.01
25.875378131866455,-0.01,0.0,0.0,0.01
25.88567018508911,-0.01,-0.01,0.01,0.01
25.89565896987915,-0.01,0.01,0.01,0.01
25.90573787689209,0.0,-0.01,-0.01,0.01
25.91879892349243,-0.01,0.0,0.0,0.01
25.925247192382812,-0.01,0.0,0.0,0.01
25.935376167297363,0.0,0.0,-0.01,0.01
25.94542694091797,-0.01,0.0,0.0,0.01
25.95625591278076,-0.01,0.0,0.0,0.01
25.970713138580322,-0.01,0.0,0.0,0.01
25.974854946136475,0.0,-0.01,0.0,0.01
25.985152006149292,-0.01,0.0,0.0,0.01
25.995014190673828,-0.01,0.01,0.01,0.01
26.005174160003662,-0.01,0.01,0.0,0.01
26.01750087738037,-0.01,0.0,0.0,0.01
26.024765968322754,-0.01,-0.01,0.0,0.01
26.034520149230957,0.0,-0.01,0.0,0.01
26.044991970062256,0.0,0.0,0.0,0.0
26.05699396133423,-0.01,-0.01,0.0,0.01
26.073955059051514,-0.01,-0.01,0.0,0.01
26.074512004852295,0.0,-0.01,0.0,0.01
26.08435606956482,-0.01,0.0,0.01,0.01
26.094715118408203,0.0,0.0,0.0,0.0
26.106627941131592,-0.01,0.0,-0.01,0.01
26.121292114257812,-0.01,-0.01,0.0,0.01
26.123871088027954,0.0,0.0,0.01,0.01
26.140138149261475,-0.01,0.01,-0.01,0.01
26.14364504814148,-0.01,0.0,-0.01,0.01
26.15728998184204,0.0,0.0,0.0,0.0
26.17354917526245,-0.01,-0.01,0.0,0.01
26.17466115951538,-0.01,0.0,-0.01,0.01
26.183815002441406,0.0,0.0,0.0,0.0
26.193587064743042,-0.01,0.0,0.0,0.01
26.203318119049072,-0.01,0.0,0.0,0.01
26.21392297744751,-0.01,0.0,0.0,0.01
26.22328209877014,0.0,0.0,0.0,0.0
26.233110904693604,-0.01,0.0,0.0,0.01
26.24501609802246,-0.01,0.0,-0.01,0.01
26.254444122314453,-0.01,0.0,-0.01,0.01
26.27082395553589,-0.01,-0.01,0.0,0.01
26.27278208732605,0.0,0.0,0.0,0.0
26.283071041107178,-0.01,0.0,0.0,0.01
26.293126106262207,0.0,-0.01,0.0,0.01
26.304869174957275,0.0,0.0,0.0,0.0
26.319375038146973,-0.01,0.0,0.01,0.01
26.322179079055786,-0.01,0.0,0.01,0.01
26.332503080368042,-0.01,0.0,0.0,0.01
26.342687129974365,0.0,0.0,-0.01,0.01
26.35277795791626,-0.01,-0.01,-0.01,0.01
26.366023063659668,-0.01,-0.01,-0.01,0.01
26.3721981048584,-0.01,0.0,0.0,0.01
26.38218402862549,-0.01,-0.01,0.0,0.01
26.39348006248474,-0.01,-0.01,0.0,0.01
26.404547214508057,-0.01,0.0,-0.01,0.01
26.423001050949097,-0.01,-0.01,0.0,0.01
26.423957109451294,-0.01,-0.01,0.01,0.01
26.43188190460205,-0.01,0.0,-0.01,0.01
26.44176721572876,-0.01,0.0,0.0,0.01
26.452133178710938,-0.01,-0.01,-0.01,0.01
26.465481996536255,-0.01,-0.01,0.0,0.01
26.471251010894775,-0.01,-0.01,0.0,0.01
26.481628894805908,0.0,0.0,0.0,0.0
26.49174690246582,-0.01,0.0,0.01,0.01
26.5037841796875,-0.01,0.01,0.0,0.01
26.5207462310791,-0.01,0.0,-0.01,0.01
26.521625995635986,-0.01,0.0,-0.01,0.01
26.530983924865723,-0.01,0.01,0.0,0.01
26.541068077087402,-0.01,0.0,0.01,0.01
26.552910089492798,-0.01,-0.01,0.01,0.01
26.567455053329468,-0.01,0.0,0.01,0.01
26.570662021636963,-0.01,0.0,-0.01,0.01
26.580739974975586,-0.01,0.0,-0.01,0.01
26.59088706970215,0.0,-0.01,0.0,0.01
26.60358715057373,-0.01,0.0,0.0,0.01
26.621635913848877,-0.01,0.0,-0.01,0.01
26.62255096435547,0.0,-0.01,-0.01,0.01
26.63055109977722,0.0,0.0,-0.01,0.01
26.640451908111572,-0.01,-0.01,0.01,0.01
26.650492191314697,-0.01,0.0,0.0,0.01
26.6621310710907,-0.01,0.01,-0.01,0.01
26.67030906677246,-0.01,0.0,0.0,0.01
26.680171012878418,-0.01,0.0,0.0,0.01
26.690510034561157,-0.01,-0.01,-0.01,0.01
26.703372955322266,0.0,0.0,0.0,0.0
26.720060110092163,0.0,-0.01,0.0,0.01
26.721306085586548,-0.01,-0.01,-0.01,0.01
26.7298641204834,0.0,0.0,-0.01,0.01
26.740076065063477,-0.01,-0.01,-0.01,0.01
26.7497239112854,-0.01,-0.01,-0.01,0.01
26.7625470161438,0.0,-0.01,-0.01,0.01
26.769640922546387,-0.01,0.0,0.0,0.01
26.779572010040283,-0.01,0.0,0.0,0.01
26.789258003234863,-0.01,0.0,0.0,0.01
26.801185131072998,-0.01,-0.01,0.0,0.01
26.815128087997437,-0.01,-0.01,0.0,0.01
26.819477081298828,0.0,0.0,-0.01,0.01
26.829231023788452,0.0,0.0,0.0,0.0
26.83921718597412,-0.01,0.0,0.0,0.01
26.850304126739502,-0.01,0.0,0.0,0.01
26.86524200439453,0.0,0.0,-0.01,0.01
26.868696212768555,0.0,0.0,0.0,0.0
26.879022121429443,0.0,-0.01,-0.01,0.01
26.88880491256714,0.0,0.0,-0.01,0.01
26.901094913482666,-0.01,0.0,0.0,0.01
26.917757987976074,-0.01,0.0,0.0,0.01
26.91840696334839,0.0,0.0,-0.01,0.01
26.928544998168945,-0.01,-0.01,0.0,0.01
26.93841004371643,-0.01,-0.01,0.0,0.01
26.94821810722351,-0.01,-0.01,0.0,0.01
26.96092200279236,-0.01,-0.01,-0.01,0.01
26.96814489364624,-0.01,-0.01,0.0,0.01
26.97815704345703,-0.01,0.0,0.0,0.01
26.988152027130127,0.0,-0.01,-0.01,0.01
27.000422954559326,-0.01,-0.01,0.0,0.01
27.01555609703064,-0.01,-0.01,0.0,0.01
27.017602920532227,-0.01,-0.01,0.0,0.01
27.0278959274292,-0.01,0.0,0.0,0.01
27.037705898284912,-0.01,0.0,0.0,0.01
27.049561023712158,-0.01,0.0,-0.01,0.01
27.06789207458496,-0.01,0.0,0.0,0.01
27.068613052368164,-0.01,0.0,0.0,0.01
27.07741689682007,-0.01,0.0,0.0,0.01
27.087671041488647,-0.01,0.0,-0.01,0.01
27.099356174468994,-0.01,0.0,0.0,0.01
27.11421012878418,0.0,0.0,0.0,0.0
27.117226123809814,-0.01,-0.01,-0.01,0.01
27.127281188964844,0.0,0.0,0.0,0.0
27.136937141418457,0.0,0.0,0.0,0.0
27.148995876312256,-0.01,0.0,-0.01,0.01
27.16359806060791,-0.01,0.0,-0.01,0.01
27.167840003967285,-0.01,0.0,0.0,0.01
27.176647186279297,-0.01,0.0,0.0,0.01
27.187161922454834,-0.01,0.0,-0.01,0.01
27.199120044708252,-0.01,0.0,0.01,0.01
27.21527910232544,-0.01,0.0,0.0,0.01
27.216182231903076,-0.01,0.0,-0.01,0.01
27.22641611099243,-0.01,0.0,0.0,0.01
27.236361980438232,-0.01,0.01,0.0,0.01
27.246543884277344,-0.01,-0.01,0.0,0.01
27.259265899658203,-0.01,0.0,0.0,0.01
27.26595687866211,-0.01,-0.01,0.0,0.01
27.275890111923218,-0.01,0.0,0.0,0.01
27.286081075668335,-0.01,0.0,0.01,0.01
27.298090934753418,0.0,-0.01,0.01,0.01
27.31264019012451,0.0,0.0,-0.01,0.01
27.315686225891113,0.0,-0.01,-0.01,0.01
27.325868129730225,-0.01,0.0,0.0,0.01
27.335886001586914,-0.01,0.0,-0.01,0.01
27.34793519973755,-0.01,-0.01,0.0,0.01
27.3632869720459,-0.02,0.0,0.0,0.02
27.36530113220215,-0.01,0.0,0.01,0.01
27.375412940979004,-0.01,-0.01,-0.01,0.01
27.385595083236694,0.0,0.0,0.0,0.0
27.395777225494385,-0.01,0.01,0.0,0.01
27.4095458984375,0.0,-0.01,-0.01,0.01
27.41497802734375,-0.01,-0.01,0.0,0.01
27.425262928009033,0.0,0.0,0.0,0.0
27.435050010681152,0.0,-0.01,0.0,0.01
27.447005033493042,-0.01,0.0,0.0,0.01
27.46302604675293,-0.01,0.0,0.0,0.01
27.464660167694092,0.0,0.0,-0.01,0.01
27.474666118621826,0.0,0.0,-0.01,0.01
27.484885215759277,-0.01,0.0,0.0,0.01
27.496530055999756,-0.01,-0.01,0.0,0.01
27.512821197509766,-0.01,-0.01,-0.01,0.01
27.514158010482788,-0.01,0.0,0.0,0.01
27.524553060531616,-0.02,-0.01,0.01,0.02
27.534286975860596,-0.01,-0.01,-0.01,0.01
27.54613494873047,-0.01,0.0,-0.01,0.01
27.559539079666138,-0.01,0.0,0.01,0.01
27.56403112411499,0.0,0.0,0.0,0.0
27.574125051498413,0.0,-0.01,0.0,0.01
27.584227085113525,0.0,-0.01,0.0,0.01
27.596196174621582,-0.01,0.0,0.0,0.01
27.61262321472168,-0.01,0.0,0.0,0.01
27.61382007598877,0.0,-0.01,-0.01,0.01
27.62383508682251,-0.01,0.0,0.01,0.01
27.6336669921875,0.0,-0.01,-0.01,0.01
27.645534992218018,0.0,0.0,-0.01,0.01
27.65855598449707,0.0,0.0,0.01,0.01
27.66347908973694,0.0,-0.01,-0.01,0.01
27.673521995544434,-0.01,0.0,0.0,0.01
27.683109998703003,-0.01,-0.01,0.0,0.01
27.695730209350586,0.0,0.0,0.01,0.01
27.712374210357666,0.0,0.0,-0.01,0.01
27.71324610710144,-0.01,0.0,0.0,0.01
27.723444938659668,0.0,-0.01,0.01,0.01
27.730144023895264,0.0,0.0,0.0,0.0
27.740106105804443,-0.01,0.0,0.0,0.01
27.751862049102783,0.0,-0.01,0.0,0.01
27.76002788543701,0.0,-0.01,0.01,0.01
27.770164966583252,-0.01,0.01,0.0,0.01
27.78029203414917,-0.01,0.0,0.0,0.01
27.792640209197998,0.0,0.0,-0.01,0.01
27.807494163513184,0.0,-0.01,0.0,0.01
27.809572219848633,-0.01,0.0,0.0,0.01
27.819890022277832,-0.01,0.0,0.0,0.01
27.829701900482178,-0.01,-0.01,0.0,0.01
27.839746952056885,-0.01,0.0,0.0,0.01
27.854527950286865,-0.01,0.0,0.0,0.01
27.859441995620728,-0.01,-0.01,0.0,0.01
27.86952805519104,0.0,0.0,0.0,0.0
27.881436109542847,-0.01,-0.01,0.0,0.01
27.891220092773438,0.0,0.0,-0.01,0.01
27.906721115112305,0.0,0.0,0.01,0.01
27.908902168273926,-0.01,0.0,0.0,0.01
27.91890811920166,-0.01,0.0,-0.01,0.01
27.92872714996338,-0.01,0.0,-0.01,0.01
27.93905019760132,-0.01,0.0,0.0,0.01
27.952784061431885,-0.01,0.0,0.0,0.01
27.958810091018677,-0.01,0.0,-0.01,0.01
27.968497037887573,-0.01,0.0,0.0,0.01
27.980629920959473,0.0,0.0,0.0,0.0
27.990410089492798,0.0,0.0,-0.01,0.01
28.005189895629883,-0.01,0.0,0.0,0.01
28.00806188583374,-0.01,0.0,0.0,0.01
28.01848602294922,-0.01,-0.01,-0.01,0.01
28.028172969818115,-0.01,0.0,-0.01,0.01
28.038525104522705,0.0,-0.01,0.0,0.01
28.052025079727173,-0.01,-0.01,0.0,0.01
28.057796955108643,-0.01,-0.01,0.0,0.01
28.06786608695984,-0.02,-0.01,0.0,0.02
28.07806706428528,-0.01,-0.01,0.01,0.01
28.08961510658264,-0.01,0.0,0.0,0.01
28.10604190826416,0.0,-0.01,-0.01,0.01
28.107508182525635,0.0,0.0,-0.01,0.01
28.11773705482483,-0.01,-0.01,0.0,0.01
28.127481937408447,-0.01,0.0,0.0,0.01
28.13752794265747,-0.01,0.0,-0.01,0.01
28.15069007873535,0.0,0.0,0.0,0.0
28.157416105270386,-0.01,-0.01,0.0,0.01
28.16837501525879,-0.01,0.0,0.0,0.01
28.179253101348877,0.0,-0.01,0.0,0.01
28.188732147216797,-0.01,-0.01,-0.01,0.01
28.204524993896484,0.0,0.0,-0.01,0.01
28.206865072250366,0.0,-0.01,0.0,0.01
28.217040061950684,0.0,0.01,0.0,0.01
28.226858139038086,0.0,0.0,-0.01,0.01
28.23680019378662,0.0,0.0,-0.01,0.01
28.249785900115967,-0.01,0.0,0.0,0.01
28.256675004959106,0.0,0.0,0.01,0.01
28.26656723022461,0.01,0.0,0.0,0.01
28.27678108215332,-0.01,0.0,0.0,0.01
28.291471004486084,-0.01,0.0,0.01,0.01
28.309789180755615,-0.01,0.01,-0.01,0.01
28.310970067977905,-0.01,-0.01,0.0,0.01
28.31916093826294,0.0,0.0,0.0,0.0
28.32898712158203,-0.01,0.0,0.0,0.01
28.3389151096344,-0.01,0.0,0.0,0.01
28.352575063705444,-0.01,0.0,0.0,0.01
28.358953952789307,0.0,0.0,-0.01,0.01
28.368916034698486,-0.01,0.0,0.0,0.01
28.37983202934265,-0.01,0.0,0.0,0.01
28.390891075134277,0.0,0.0,0.0,0.0
28.407780170440674,-0.01,-0.01,0.0,0.01
28.409225940704346,0.0,0.01,0.01,0.01
28.42300319671631,-0.01,-0.01,0.0,0.01
28.428160190582275,-0.01,-0.01,0.0,0.01
28.44018793106079,0.0,-0.01,0.0,0.01
28.45544409751892,-0.01,0.0,0.0,0.01
28.45775318145752,0.0,0.0,0.0,0.0
28.473092079162598,0.0,0.0,0.0,0.0
28.478018045425415,-0.01,-0.01,0.0,0.01
28.489439964294434,-0.01,-0.01,0.0,0.01
28.50331211090088,0.0,-0.01,0.0,0.01
28.507785081863403,-0.01,-0.01,0.0,0.01
28.517581939697266,-0.01,0.0,0.0,0.01
28.527626991271973,-0.01,0.0,0.0,0.01
28.540092945098877,0.0,-0.01,0.0,0.01
28.558271884918213,0.0,0.0,0.0,0.0
28.55940818786621,-0.01,0.01,0.0,0.01
28.573111057281494,-0.01,-0.01,0.0,0.01
28.57699704170227,-0.01,0.0,0.0,0.01
28.588438034057617,0.0,0.0,0.0,0.0
28.601906061172485,-0.01,0.0,0.0,0.01
28.60706090927124,0.0,-0.01,0.0,0.01
28.616764068603516,0.0,0.0,0.0,0.0
28.62706708908081,-0.01,-0.01,0.0,0.01
28.63720703125,0.0,-0.01,-0.01,0.01
28.652451992034912,-0.01,-0.01,-0.01,0.01
28.656527996063232,-0.01,0.0,0.0,0.01
28.666901111602783,0.0,-0.01,-0.02,0.02
28.677216053009033,-0.01,-0.01,0.0,0.01
28.688891887664795,-0.01,0.0,0.0,0.01
28.705774068832397,0.0,0.0,0.0,0.0
28.707001209259033,0.0,0.0,-0.01,0.01
28.71627902984619,-0.01,0.0,0.0,0.01
28.72624921798706,-0.01,-0.01,0.0,0.01
28.73627519607544,-0.01,-0.01,-0.01,0.01
28.74926209449768,-0.01,-0.01,-0.01,0.01
28.75605607032776,-0.02,0.0,0.0,0.02
28.766195058822632,-0.01,-0.01,0.0,0.01
28.77584218978882,0.0,0.0,0.0,0.0
28.78627300262451,-0.01,0.0,0.0,0.01
28.8005530834198,0.0,-0.01,0.0,0.01
28.805613040924072,-0.01,0.0,0.0,0.01
28.82272720336914,0.0,0.01,0.0,0.01
28.825296878814697,0.0,0.0,-0.01,0.01
28.83941888809204,-0.01,0.0,-0.01,0.01
28.85628318786621,-0.01,0.0,0.0,0.01
28.857178211212158,0.0,0.0,-0.01,0.01
28.8653302192688,-0.01,0.0,0.0,0.01
28.875214099884033,0.0,0.0,-0.01,0.01
28.8852961063385,-0.01,0.0,0.0,0.01
28.897480010986328,0.0,0.0,0.0,0.0
28.905065059661865,-0.01,0.0,0.0,0.01
28.914855003356934,0.0,0.0,0.0,0.0
28.924928188323975,0.0,0.0,0.0,0.0
28.937063217163086,0.0,0.0,0.01,0.01
28.9544780254364,0.0,0.01,0.0,0.01
28.955456018447876,-0.01,0.0,0.0,0.01
28.96468210220337,0.0,0.0,-0.01,0.01
28.974557876586914,-0.01,0.01,0.0,0.01
28.98477005958557,0.0,0.0,-0.01,0.01
28.999481201171875,-0.01,0.0,0.0,0.01
29.004048109054565,0.0,0.0,0.0,0.0
29.014174938201904,-0.01,-0.01,0.0,0.01
29.024765014648438,0.0,0.0,0.01,0.01
29.036599159240723,-0.01,0.0,0.0,0.01
29.05226421356201,0.0,-0.01,-0.01,0.01
29.053632020950317,-0.01,0.0,-0.01,0.01
29.073089122772217,-0.01,0.0,-0.01,0.01
29.073577880859375,-0.01,0.0,0.0,0.01
29.084184169769287,0.0,0.0,0.0,0.0
29.098269939422607,0.0,0.0,-0.01,0.01
29.10360288619995,-0.01,-0.01,-0.01,0.01
29.11352014541626,0.0,0.0,-0.01,0.01
29.123480081558228,0.0,0.0,0.0,0.0
29.135735988616943,-0.01,0.0,0.0,0.01
29.151870012283325,-0.01,0.0,-0.01,0.01
29.152912139892578,-0.01,0.01,0.01,0.01
29.16338801383972,0.0,0.0,0.0,0.0
29.173023223876953,0.0,0.0,-0.01,0.01
29.183109045028687,0.0,0.0,0.0,0.0
29.195730209350586,-0.01,-0.01,-0.01,0.01
29.203058004379272,0.0,0.0,-0.02,0.02
29.21260118484497,0.0,0.0,-0.01,0.01
29.22277021408081,0.0,0.0,0.0,0.0
29.232872009277344,-0.01,0.0,0.0,0.01
29.247323989868164,-0.01,0.0,-0.01,0.01
29.252564907073975,0.0,0.0,-0.01,0.01
29.262662887573242,-0.01,0.0,0.0,0.01
29.272539138793945,0.0,0.01,-0.01,0.01
29.282533168792725,0.0,0.0,-0.01,0.01
29.296122074127197,-0.01,-0.01,-0.01,0.01
29.302488088607788,-0.01,0.0,0.0,0.01
29.312040090560913,0.0,0.0,-0.01,0.01
29.32235622406006,0.0,0.0,0.0,0.0
29.332326889038086,-0.01,0.0,0.0,0.01
29.345757007598877,-0.01,0.0,-0.01,0.01
29.35199809074402,-0.01,0.0,0.0,0.01
29.361895084381104,-0.01,-0.01,0.0,0.01
29.372002124786377,-0.01,0.0,0.0,0.01
29.38440203666687,-0.01,0.01,-0.01,0.01
29.400814056396484,0.0,-0.01,0.0,0.01
29.40185308456421,0.0,0.0,0.0,0.0
29.422657012939453,-0.01,-0.01,0.0,0.01
29.42354702949524,0.0,-0.01,0.0,0.01
29.43190622329712,-0.01,0.0,-0.01,0.01
29.447309017181396,-0.01,0.0,0.0,0.01
29.450958013534546,-0.01,0.0,-0.01,0.01
29.461205005645752,0.0,0.0,-0.01,0.01
29.47114109992981,0.01,0.0,0.0,0.01
29.481434106826782,0.0,-0.01,0.0,0.01
29.495851039886475,0.0,0.0,0.0,0.0
29.500757217407227,0.0,0.0,-0.01,0.01
29.510819911956787,0.0,0.0,0.0,0.0
29.52092695236206,-0.02,0.0,0.02,0.02
29.533134937286377,-0.01,0.0,0.0,0.01
29.548508167266846,-0.01,0.0,-0.01,0.01
29.550312995910645,-0.01,0.0,0.0,0.01
29.560489177703857,-0.01,-0.01,0.0,0.01
29.570494174957275,0.0,-0.01,-0.01,0.01
29.583343982696533,0.0,0.0,0.0,0.0
29.599018096923828,0.0,-0.01,0.0,0.01
29.60006308555603,-0.01,0.0,0.0,0.01
29.61040210723877,0.0,0.0,-0.02,0.02
29.620301008224487,-0.01,-0.01,-0.01,0.01
29.630176067352295,-0.01,0.0,0.0,0.01
29.642287015914917,0.0,0.0,0.01,0.01
29.649806022644043,-0.01,0.01,0.01,0.01
29.659852027893066,-0.01,0.0,-0.01,0.01
29.669617176055908,-0.01,-0.01,-0.02,0.02
29.68277597427368,0.0,0.0,0.0,0.0
29.700364112854004,-0.01,0.0,0.0,0.01
29.701341152191162,-0.01,0.0,-0.01,0.01
29.70943593978882,0.0,0.0,-0.01,0.01
29.719422101974487,-0.01,0.0,0.0,0.01
29.729234218597412,-0.01,0.0,0.0,0.01
29.741272926330566,-0.01,0.01,0.0,0.01
29.749502182006836,0.0,-0.01,0.01,0.01
29.75906801223755,0.0,-0.01,0.0,0.01
29.768999099731445,0.0,-0.01,-0.01,0.01
29.779503107070923,-0.01,-0.01,0.0,0.01
29.793599128723145,-0.01,0.0,-0.01,0.01
29.798901081085205,-0.01,0.0,0.0,0.01
29.808802127838135,0.0,0.0,0.0,0.0
29.818830966949463,0.0,0.0,-0.01,0.01
29.830826997756958,0.0,-0.01,-0.01,0.01
29.846822023391724,-0.01,0.0,-0.02,0.02
29.848165035247803,0.0,0.0,0.0,0.0
29.858484029769897,0.0,-0.01,0.0,0.01
29.868308067321777,0.0,0.0,0.0,0.0
29.87832021713257,0.0,0.0,0.01,0.01
29.89072322845459,-0.01,-0.01,0.0,0.01
29.898370027542114,0.0,0.0,-0.01,0.01
29.90822696685791,-0.01,0.0,0.0,0.01
29.918461084365845,-0.01,-0.01,0.0,0.01
29.929683208465576,-0.01,-0.01,-0.01,0.01
29.946352005004883,-0.01,0.0,-0.01,0.01
29.94750690460205,0.0,-0.01,-0.01,0.01
29.957901000976562,-0.01,0.0,0.0,0.01
29.967628002166748,0.0,0.0,0.0,0.0
29.977559089660645,0.0,0.0,0.0,0.0
29.990897178649902,0.0,0.0,0.0,0.0
29.997887134552002,-0.01,0.0,-0.01,0.01
30.007737159729004,0.0,-0.01,0.0,0.01
30.017728090286255,-0.01,0.0,0.0,0.01
30.02957510948181,0.0,0.0,0.0,0.0
30.046287059783936,-0.01,-0.01,0.0,0.01
30.047560214996338,0.0,-0.01,0.0,0.01
30.056931018829346,0.0,0.0,0.0,0.0
30.06717801094055,-0.01,-0.01,0.0,0.01
30.07705807685852,0.0,0.0,0.0,0.0
30.089729070663452,-0.01,-0.01,0.0,0.01
30.09684705734253,-0.01,-0.01,0.01,0.01
30.106816053390503,0.0,-0.01,0.0,0.01
30.116530895233154,0.0,-0.01,0.0,0.01
30.126638889312744,-0.01,-0.01,0.0,0.01
30.140575885772705,-0.01,0.0,0.0,0.01
30.146130084991455,-0.01,0.0,0.0,0.01
30.156246185302734,-0.01,0.0,0.0,0.01
30.168060064315796,-0.01,0.0,0.0,0.01
30.17847204208374,0.0,-0.01,0.0,0.01
